label,sub_label,user,file_id,watch_accel_x0,watch_accel_y0,watch_accel_z0,watch_gyros_x0,watch_gyros_y0,watch_gyros_z0,watch_accel_x1,watch_accel_y1,watch_accel_z1,watch_gyros_x1,watch_gyros_y1,watch_gyros_z1,watch_accel_x2,watch_accel_y2,watch_accel_z2,watch_gyros_x2,watch_gyros_y2,watch_gyros_z2,watch_accel_x3,watch_accel_y3,watch_accel_z3,watch_gyros_x3,watch_gyros_y3,watch_gyros_z3,watch_accel_x4,watch_accel_y4,watch_accel_z4,watch_gyros_x4,watch_gyros_y4,watch_gyros_z4,watch_accel_x5,watch_accel_y5,watch_accel_z5,watch_gyros_x5,watch_gyros_y5,watch_gyros_z5,watch_accel_x6,watch_accel_y6,watch_accel_z6,watch_gyros_x6,watch_gyros_y6,watch_gyros_z6,watch_accel_x7,watch_accel_y7,watch_accel_z7,watch_gyros_x7,watch_gyros_y7,watch_gyros_z7,watch_accel_x8,watch_accel_y8,watch_accel_z8,watch_gyros_x8,watch_gyros_y8,watch_gyros_z8,watch_accel_x9,watch_accel_y9,watch_accel_z9,watch_gyros_x9,watch_gyros_y9,watch_gyros_z9,watch_accel_x10,watch_accel_y10,watch_accel_z10,watch_gyros_x10,watch_gyros_y10,watch_gyros_z10,watch_accel_x11,watch_accel_y11,watch_accel_z11,watch_gyros_x11,watch_gyros_y11,watch_gyros_z11,watch_accel_x12,watch_accel_y12,watch_accel_z12,watch_gyros_x12,watch_gyros_y12,watch_gyros_z12,watch_accel_x13,watch_accel_y13,watch_accel_z13,watch_gyros_x13,watch_gyros_y13,watch_gyros_z13,watch_accel_x14,watch_accel_y14,watch_accel_z14,watch_gyros_x14,watch_gyros_y14,watch_gyros_z14,watch_accel_x15,watch_accel_y15,watch_accel_z15,watch_gyros_x15,watch_gyros_y15,watch_gyros_z15,watch_accel_x16,watch_accel_y16,watch_accel_z16,watch_gyros_x16,watch_gyros_y16,watch_gyros_z16,watch_accel_x17,watch_accel_y17,watch_accel_z17,watch_gyros_x17,watch_gyros_y17,watch_gyros_z17,watch_accel_x18,watch_accel_y18,watch_accel_z18,watch_gyros_x18,watch_gyros_y18,watch_gyros_z18,watch_accel_x19,watch_accel_y19,watch_accel_z19,watch_gyros_x19,watch_gyros_y19,watch_gyros_z19,watch_accel_x20,watch_accel_y20,watch_accel_z20,watch_gyros_x20,watch_gyros_y20,watch_gyros_z20,watch_accel_x21,watch_accel_y21,watch_accel_z21,watch_gyros_x21,watch_gyros_y21,watch_gyros_z21,watch_accel_x22,watch_accel_y22,watch_accel_z22,watch_gyros_x22,watch_gyros_y22,watch_gyros_z22,watch_accel_x23,watch_accel_y23,watch_accel_z23,watch_gyros_x23,watch_gyros_y23,watch_gyros_z23,watch_accel_x24,watch_accel_y24,watch_accel_z24,watch_gyros_x24,watch_gyros_y24,watch_gyros_z24,watch_accel_x25,watch_accel_y25,watch_accel_z25,watch_gyros_x25,watch_gyros_y25,watch_gyros_z25,watch_accel_x26,watch_accel_y26,watch_accel_z26,watch_gyros_x26,watch_gyros_y26,watch_gyros_z26,watch_accel_x27,watch_accel_y27,watch_accel_z27,watch_gyros_x27,watch_gyros_y27,watch_gyros_z27,watch_accel_x28,watch_accel_y28,watch_accel_z28,watch_gyros_x28,watch_gyros_y28,watch_gyros_z28,watch_accel_x29,watch_accel_y29,watch_accel_z29,watch_gyros_x29,watch_gyros_y29,watch_gyros_z29,watch_accel_x30,watch_accel_y30,watch_accel_z30,watch_gyros_x30,watch_gyros_y30,watch_gyros_z30,watch_accel_x31,watch_accel_y31,watch_accel_z31,watch_gyros_x31,watch_gyros_y31,watch_gyros_z31,watch_accel_x32,watch_accel_y32,watch_accel_z32,watch_gyros_x32,watch_gyros_y32,watch_gyros_z32,watch_accel_x33,watch_accel_y33,watch_accel_z33,watch_gyros_x33,watch_gyros_y33,watch_gyros_z33,watch_accel_x34,watch_accel_y34,watch_accel_z34,watch_gyros_x34,watch_gyros_y34,watch_gyros_z34,watch_accel_x35,watch_accel_y35,watch_accel_z35,watch_gyros_x35,watch_gyros_y35,watch_gyros_z35,watch_accel_x36,watch_accel_y36,watch_accel_z36,watch_gyros_x36,watch_gyros_y36,watch_gyros_z36,watch_accel_x37,watch_accel_y37,watch_accel_z37,watch_gyros_x37,watch_gyros_y37,watch_gyros_z37,watch_accel_x38,watch_accel_y38,watch_accel_z38,watch_gyros_x38,watch_gyros_y38,watch_gyros_z38,watch_accel_x39,watch_accel_y39,watch_accel_z39,watch_gyros_x39,watch_gyros_y39,watch_gyros_z39,watch_accel_x40,watch_accel_y40,watch_accel_z40,watch_gyros_x40,watch_gyros_y40,watch_gyros_z40,watch_accel_x41,watch_accel_y41,watch_accel_z41,watch_gyros_x41,watch_gyros_y41,watch_gyros_z41,watch_accel_x42,watch_accel_y42,watch_accel_z42,watch_gyros_x42,watch_gyros_y42,watch_gyros_z42,watch_accel_x43,watch_accel_y43,watch_accel_z43,watch_gyros_x43,watch_gyros_y43,watch_gyros_z43,watch_accel_x44,watch_accel_y44,watch_accel_z44,watch_gyros_x44,watch_gyros_y44,watch_gyros_z44,watch_accel_x45,watch_accel_y45,watch_accel_z45,watch_gyros_x45,watch_gyros_y45,watch_gyros_z45,watch_accel_x46,watch_accel_y46,watch_accel_z46,watch_gyros_x46,watch_gyros_y46,watch_gyros_z46,watch_accel_x47,watch_accel_y47,watch_accel_z47,watch_gyros_x47,watch_gyros_y47,watch_gyros_z47,watch_accel_x48,watch_accel_y48,watch_accel_z48,watch_gyros_x48,watch_gyros_y48,watch_gyros_z48,watch_accel_x49,watch_accel_y49,watch_accel_z49,watch_gyros_x49,watch_gyros_y49,watch_gyros_z49,watch_accel_x50,watch_accel_y50,watch_accel_z50,watch_gyros_x50,watch_gyros_y50,watch_gyros_z50
shake,10201,205,205_10201_260413220405225,7.618350028991699,-7.115567684173584,-3.4787750244140625,3.039665460586548,-0.06475171446800232,0.21868975460529327,7.797914981842041,-6.303933143615723,-2.6599581241607666,3.5527923107147217,-0.11972958594560623,0.29565876722335815,8.492233276367188,-4.78122091293335,-1.7310078144073486,3.299894094467163,-0.06108652427792549,0.5913175344467163,8.576030731201172,-2.123656988143921,-0.8954314589500427,2.5216517448425293,0.15882496535778046,1.0384708642959595,7.565677165985107,-0.4596867263317108,-0.395043283700943,0.6010913848876953,0.45204028487205505,1.1838568449020386,5.571307182312012,-1.091755986213684,-0.22266076505184174,-0.3445279896259308,0.07819075137376785,1.0482447147369385,7.7428483963012695,-5.386953830718994,-2.8227639198303223,-0.22846360504627228,0.1820378452539444,0.911410927772522,6.864176273345947,-5.2696380615234375,-1.2306196689605713,-0.5998696684837341,0.01466076634824276,0.3335324227809906,7.271190643310547,-8.245630264282227,-1.0438719987869263,-0.5656611919403076,0.0,0.019547687843441963,8.24084186553955,-9.02135181427002,-0.3471592366695404,-0.9040805697441101,0.0659734457731247,-0.3323107063770294,7.493851184844971,-7.0341644287109375,0.035913024097681046,-1.0458012819290161,0.07208210229873657,-0.42149701714515686,7.603984832763672,-7.3454108238220215,-0.4357447028160095,-1.4734070301055908,0.15882496535778046,-0.4043927788734436,7.654263019561768,-7.058106422424316,-1.0678139925003052,-2.141693592071533,0.09162978827953339,-0.45814892649650574,7.572859764099121,-6.648698329925537,-1.6903064250946045,-2.094046115875244,0.07330382615327835,-0.5094616413116455,7.778761386871338,-5.942408561706543,-2.3774423599243164,-1.9889771938323975,0.12950342893600464,-0.46792277693748474,7.979874134063721,-5.849034786224365,-3.4332852363586426,-2.046398639678955,0.2993239760398865,-0.6230825781822205,8.47547435760498,-8.44195556640625,-4.2544965744018555,-2.2675318717956543,0.5705481171607971,-0.93095862865448,8.29590892791748,-12.864046096801758,-2.9664158821105957,0.8539896011352539,0.34086281061172485,-0.8918632864952087,6.411672115325928,-8.398859977722168,-1.778891921043396,3.078760862350464,0.04153883829712868,-0.4386012554168701,6.337451934814453,-4.764461517333984,-1.50355863571167,3.975511074066162,-0.06108652427792549,-0.07208210229873657,7.374141216278076,-4.017470359802246,-0.8595184087753296,3.445280075073242,-0.012217304669320583,0.4911356568336487,7.68538761138916,-2.6647465229034424,0.12689268589019775,2.833193063735962,-0.018325956538319588,0.7672467231750488,7.8314337730407715,-1.9919757843017578,2.073378562927246,1.6139060258865356,-0.16982053220272064,1.2693779468536377,7.6566572189331055,-1.072602391242981,2.054224967956543,-0.02687807008624077,0.2736676335334778,1.4538593292236328,7.196970462799072,-1.8938134908676147,-6.514622688293457,-0.978606104850769,0.28588494658470154,1.2950342893600464,6.0836663246154785,-4.630385875701904,-5.882553577423096,-0.9162978529930115,0.38240164518356323,0.7098253965377808,6.2201361656188965,-8.461109161376953,-2.454056739807129,-0.21380282938480377,-0.015882495790719986,0.39095374941825867,9.32541561126709,-8.470685958862305,0.9026140570640564,-1.2596040964126587,-0.010995574295520782,-0.4056145250797272,9.99339771270752,-7.977479934692383,0.031124621629714966,-1.379333734512329,0.08552113175392151,-0.6389650702476501,8.554482460021973,-8.269572257995605,-0.3471592366695404,-1.587027907371521,0.294437050819397,-0.5632177591323853,7.496245384216309,-7.4770917892456055,-1.3718775510787964,-1.606575608253479,0.42760565876960754,-0.39095374941825867,6.933608055114746,-7.857769966125488,-1.1492167711257935,-1.5796974897384644,0.35552358627319336,-0.3640756905078888,6.6846113204956055,-8.358158111572266,-1.0654197931289673,-1.3915510177612305,0.2541199326515198,-0.4605923891067505,6.691793918609619,-7.805097579956055,-1.3096283674240112,-0.6609562039375305,0.10995574295520782,-0.48380526900291443,6.564900875091553,-6.258443355560303,-1.314416766166687,-0.5754350423812866,-0.04398229718208313,-0.375071257352829,6.964732646942139,-5.128379821777344,-0.9768342971801758,-0.6633996367454529,-0.09896016865968704,-0.3799581825733185,7.750030994415283,-4.797980308532715,-1.745373010635376,-0.6108652353286743,-0.06352998316287994,-0.3286454975605011,8.08043098449707,-5.633556365966797,-1.9105730056762695,-0.37262779474258423,-0.00855211354792118,-0.3017674386501312,7.814674377441406,-5.932831764221191,-1.8842366933822632,-0.0354301854968071,-0.05742133408784866,-0.2223549485206604,7.637503623962402,-4.927267074584961,-1.843535304069519,-0.17104226350784302,-0.0757472887635231,-0.21013765037059784,7.745242595672607,-4.929661273956299,-2.032677173614502,-0.5461135506629944,-0.00733038317412138,-0.22846360504627228,7.927201747894287,-5.916072368621826,-2.561795711517334,-0.37629300355911255,0.02932153269648552,-0.18448130786418915,7.740454196929932,-6.186617374420166,-2.4420857429504395,0.024434609338641167,-0.006108652334660292,-0.06963863968849182,7.575253963470459,-5.056553840637207,-1.455674648284912,-0.1319468915462494,-0.06963863968849182,-0.08674286305904388,7.738059997558594,-5.307945251464844,-1.5179238319396973,-0.2541199326515198,-0.09162978827953339,-0.10018189996480942,7.922413349151611,-5.9304375648498535,-2.145204782485962,-0.11484266817569733,-0.051312681287527084,-0.0708603709936142,8.018181800842285,-5.861005783081055,-2.52109432220459,-0.013439035043120384,-0.015882495790719986,-0.01710422709584236,7.9846625328063965,-5.274426460266113,-2.631227731704712,-0.0024434609804302454,0.006108652334660292,0.012217304669320583,8.015787124633789,-5.1331682205200195,-2.1787235736846924,-0.04764748737215996,0.00855211354792118,0.024434609338641167,7.9631147384643555,-5.295974254608154,-2.3056161403656006,-0.05375614017248154,0.012217304669320583,0.024434609338641167,7.9631147384643555,-5.451597213745117,-2.3535003662109375,-0.04886921867728233,0.039095375686883926,0.019547687843441963
