label,sub_label,user,file_id,mobile_accel_x0,mobile_accel_y0,mobile_accel_z0,mobile_gyros_x0,mobile_gyros_y0,mobile_gyros_z0,mobile_accel_x1,mobile_accel_y1,mobile_accel_z1,mobile_gyros_x1,mobile_gyros_y1,mobile_gyros_z1,mobile_accel_x2,mobile_accel_y2,mobile_accel_z2,mobile_gyros_x2,mobile_gyros_y2,mobile_gyros_z2,mobile_accel_x3,mobile_accel_y3,mobile_accel_z3,mobile_gyros_x3,mobile_gyros_y3,mobile_gyros_z3,mobile_accel_x4,mobile_accel_y4,mobile_accel_z4,mobile_gyros_x4,mobile_gyros_y4,mobile_gyros_z4,mobile_accel_x5,mobile_accel_y5,mobile_accel_z5,mobile_gyros_x5,mobile_gyros_y5,mobile_gyros_z5,mobile_accel_x6,mobile_accel_y6,mobile_accel_z6,mobile_gyros_x6,mobile_gyros_y6,mobile_gyros_z6,mobile_accel_x7,mobile_accel_y7,mobile_accel_z7,mobile_gyros_x7,mobile_gyros_y7,mobile_gyros_z7,mobile_accel_x8,mobile_accel_y8,mobile_accel_z8,mobile_gyros_x8,mobile_gyros_y8,mobile_gyros_z8,mobile_accel_x9,mobile_accel_y9,mobile_accel_z9,mobile_gyros_x9,mobile_gyros_y9,mobile_gyros_z9,mobile_accel_x10,mobile_accel_y10,mobile_accel_z10,mobile_gyros_x10,mobile_gyros_y10,mobile_gyros_z10,mobile_accel_x11,mobile_accel_y11,mobile_accel_z11,mobile_gyros_x11,mobile_gyros_y11,mobile_gyros_z11,mobile_accel_x12,mobile_accel_y12,mobile_accel_z12,mobile_gyros_x12,mobile_gyros_y12,mobile_gyros_z12,mobile_accel_x13,mobile_accel_y13,mobile_accel_z13,mobile_gyros_x13,mobile_gyros_y13,mobile_gyros_z13,mobile_accel_x14,mobile_accel_y14,mobile_accel_z14,mobile_gyros_x14,mobile_gyros_y14,mobile_gyros_z14,mobile_accel_x15,mobile_accel_y15,mobile_accel_z15,mobile_gyros_x15,mobile_gyros_y15,mobile_gyros_z15,mobile_accel_x16,mobile_accel_y16,mobile_accel_z16,mobile_gyros_x16,mobile_gyros_y16,mobile_gyros_z16,mobile_accel_x17,mobile_accel_y17,mobile_accel_z17,mobile_gyros_x17,mobile_gyros_y17,mobile_gyros_z17,mobile_accel_x18,mobile_accel_y18,mobile_accel_z18,mobile_gyros_x18,mobile_gyros_y18,mobile_gyros_z18,mobile_accel_x19,mobile_accel_y19,mobile_accel_z19,mobile_gyros_x19,mobile_gyros_y19,mobile_gyros_z19,mobile_accel_x20,mobile_accel_y20,mobile_accel_z20,mobile_gyros_x20,mobile_gyros_y20,mobile_gyros_z20,mobile_accel_x21,mobile_accel_y21,mobile_accel_z21,mobile_gyros_x21,mobile_gyros_y21,mobile_gyros_z21,mobile_accel_x22,mobile_accel_y22,mobile_accel_z22,mobile_gyros_x22,mobile_gyros_y22,mobile_gyros_z22,mobile_accel_x23,mobile_accel_y23,mobile_accel_z23,mobile_gyros_x23,mobile_gyros_y23,mobile_gyros_z23,mobile_accel_x24,mobile_accel_y24,mobile_accel_z24,mobile_gyros_x24,mobile_gyros_y24,mobile_gyros_z24,mobile_accel_x25,mobile_accel_y25,mobile_accel_z25,mobile_gyros_x25,mobile_gyros_y25,mobile_gyros_z25,mobile_accel_x26,mobile_accel_y26,mobile_accel_z26,mobile_gyros_x26,mobile_gyros_y26,mobile_gyros_z26,mobile_accel_x27,mobile_accel_y27,mobile_accel_z27,mobile_gyros_x27,mobile_gyros_y27,mobile_gyros_z27,mobile_accel_x28,mobile_accel_y28,mobile_accel_z28,mobile_gyros_x28,mobile_gyros_y28,mobile_gyros_z28,mobile_accel_x29,mobile_accel_y29,mobile_accel_z29,mobile_gyros_x29,mobile_gyros_y29,mobile_gyros_z29,mobile_accel_x30,mobile_accel_y30,mobile_accel_z30,mobile_gyros_x30,mobile_gyros_y30,mobile_gyros_z30,mobile_accel_x31,mobile_accel_y31,mobile_accel_z31,mobile_gyros_x31,mobile_gyros_y31,mobile_gyros_z31,mobile_accel_x32,mobile_accel_y32,mobile_accel_z32,mobile_gyros_x32,mobile_gyros_y32,mobile_gyros_z32,mobile_accel_x33,mobile_accel_y33,mobile_accel_z33,mobile_gyros_x33,mobile_gyros_y33,mobile_gyros_z33,mobile_accel_x34,mobile_accel_y34,mobile_accel_z34,mobile_gyros_x34,mobile_gyros_y34,mobile_gyros_z34,mobile_accel_x35,mobile_accel_y35,mobile_accel_z35,mobile_gyros_x35,mobile_gyros_y35,mobile_gyros_z35,mobile_accel_x36,mobile_accel_y36,mobile_accel_z36,mobile_gyros_x36,mobile_gyros_y36,mobile_gyros_z36,mobile_accel_x37,mobile_accel_y37,mobile_accel_z37,mobile_gyros_x37,mobile_gyros_y37,mobile_gyros_z37,mobile_accel_x38,mobile_accel_y38,mobile_accel_z38,mobile_gyros_x38,mobile_gyros_y38,mobile_gyros_z38,mobile_accel_x39,mobile_accel_y39,mobile_accel_z39,mobile_gyros_x39,mobile_gyros_y39,mobile_gyros_z39,mobile_accel_x40,mobile_accel_y40,mobile_accel_z40,mobile_gyros_x40,mobile_gyros_y40,mobile_gyros_z40,mobile_accel_x41,mobile_accel_y41,mobile_accel_z41,mobile_gyros_x41,mobile_gyros_y41,mobile_gyros_z41,mobile_accel_x42,mobile_accel_y42,mobile_accel_z42,mobile_gyros_x42,mobile_gyros_y42,mobile_gyros_z42,mobile_accel_x43,mobile_accel_y43,mobile_accel_z43,mobile_gyros_x43,mobile_gyros_y43,mobile_gyros_z43,mobile_accel_x44,mobile_accel_y44,mobile_accel_z44,mobile_gyros_x44,mobile_gyros_y44,mobile_gyros_z44,mobile_accel_x45,mobile_accel_y45,mobile_accel_z45,mobile_gyros_x45,mobile_gyros_y45,mobile_gyros_z45,mobile_accel_x46,mobile_accel_y46,mobile_accel_z46,mobile_gyros_x46,mobile_gyros_y46,mobile_gyros_z46,mobile_accel_x47,mobile_accel_y47,mobile_accel_z47,mobile_gyros_x47,mobile_gyros_y47,mobile_gyros_z47,mobile_accel_x48,mobile_accel_y48,mobile_accel_z48,mobile_gyros_x48,mobile_gyros_y48,mobile_gyros_z48,mobile_accel_x49,mobile_accel_y49,mobile_accel_z49,mobile_gyros_x49,mobile_gyros_y49,mobile_gyros_z49
random,999,204,204_999_260413183756530,-21.22254180908203,-8.528019905090332,21.718454360961914,4.116465091705322,9.30637264251709,9.996343612670898,-20.04048728942871,-17.9826602935791,20.85584259033203,7.742558479309082,11.975698471069336,19.58249282836914,-2.922234535217285,-17.059030532836914,11.860025405883789,9.131817817687988,10.56582260131836,21.941957473754883,11.794820785522461,-8.166105270385742,3.9499518871307373,9.180075645446777,4.7122111320495605,17.079931259155273,32.47538757324219,1.6863417625427246,-6.100501537322998,5.801688194274902,-2.41459584236145,7.652761459350586,52.34658432006836,14.966506958007812,-15.116059303283691,-2.7091853618621826,-6.155837059020996,-6.385827541351318,36.553955078125,-1.9489539861679077,-13.686945915222168,-10.634697914123535,-7.252645015716553,-17.44171714782715,19.98784637451172,-31.96930694580078,-10.26042366027832,-17.631542205810547,-9.056375503540039,-22.12643814086914,6.942176818847656,-56.113487243652344,4.508078098297119,-21.51374053955078,-10.436471939086914,-22.24005889892578,0.23330020904541016,-39.059242248535156,36.85245895385742,-14.847526550292969,-11.590853691101074,-20.46977424621582,-3.4085757732391357,-30.509685516357422,40.98247146606445,-2.2479825019836426,-10.23488712310791,-15.38142204284668,-21.584457397460938,-23.75474739074707,35.75056457519531,6.563131332397461,3.308901786804199,-0.5577195286750793,-7.573882102966309,-16.319049835205078,11.512468338012695,8.319214820861816,11.890788078308105,10.646761894226074,3.5234313011169434,-9.58205795288086,3.94815731048584,6.122239589691162,10.772905349731445,12.747831344604492,5.8851470947265625,-0.18305093050003052,4.064807415008545,4.459007263183594,5.437918186187744,9.590271949768066,5.835496425628662,7.180262565612793,5.799005508422852,3.571268320083618,0.5180133581161499,3.9996371269226074,3.7597224712371826,6.487540245056152,3.9672999382019043,1.6898046731948853,-3.0379831790924072,-1.0879502296447754,1.612762451171875,4.2795634269714355,4.016951084136963,-0.5858193039894104,-4.664258003234863,-4.5278825759887695,-1.1886346340179443,1.4452649354934692,5.234299659729004,-2.4657557010650635,-4.88325309753418,-5.906146049499512,-3.4139597415924072,-0.9649057388305664,7.7563347816467285,-3.571420907974243,-4.297128200531006,-5.1089677810668945,-5.155336380004883,-2.6638097763061523,11.26062297821045,-3.690692186355591,-2.916574001312256,-2.424827814102173,-4.9980082511901855,-2.4771697521209717,12.956536293029785,-2.621373414993286,-1.2302817106246948,0.25381430983543396,-2.912663459777832,-0.5778666734695435,13.517653465270996,-0.9349285364151001,0.25243985652923584,1.5250239372253418,-1.4865410327911377,0.2883351147174835,12.485748291015625,0.4944950342178345,1.0888664722442627,1.7777692079544067,-1.420140266418457,0.0011964113218709826,10.709077835083008,1.148120403289795,1.3026691675186157,1.6074906587600708,-1.459621787071228,0.2548356056213379,9.434301376342773,1.0581705570220947,1.0809252262115479,1.173776626586914,-1.5828521251678467,0.6089733839035034,8.857032775878906,0.5152644515037537,0.6243038177490234,0.591622531414032,-2.0165512561798096,0.28893333673477173,8.72064208984375,-0.17913609743118286,0.0798705667257309,0.13133592903614044,-2.404188632965088,-0.22013968229293823,8.902496337890625,-0.7663298845291138,-0.4214966893196106,-0.04673115536570549,-2.36291241645813,-0.5108676552772522,9.503094673156738,-1.134528636932373,-0.7449495792388916,-0.020158538594841957,-1.794616937637329,-0.9571290612220764,9.93380355834961,-1.2370011806488037,-0.8164207935333252,0.06414080411195755,-1.1611171960830688,-1.4386845827102661,10.790433883666992,-1.0341941118240356,-0.3860665261745453,0.06001746281981468,-1.2837493419647217,-1.3639088869094849,11.33240795135498,-0.5241219997406006,0.16157373785972595,0.009162971749901772,-1.8729819059371948,-1.1694921255111694,11.34796142578125,0.1406516134738922,0.3640754222869873,0.05833758786320686,-2.255235433578491,-1.1425727605819702,10.826924324035645,0.6908880472183228,0.28466299176216125,0.22128576040267944,-1.944766640663147,-0.9774680733680725,10.000802040100098,0.8822414875030518,0.18616104125976562,0.33689191937446594,-1.3004990816116333,-0.9332008361816406,9.224929809570312,0.6801979541778564,0.19624030590057373,0.3277289569377899,-1.1180464029312134,-0.7860422134399414,9.024530410766602,0.2994764447212219,0.37919431924819946,0.19410228729248047,-1.5152549743652344,-0.40677985548973083,8.93958568572998,-0.0032070400193333626,0.27000224590301514,0.03405570983886719,-1.810768485069275,-0.28893333673477173,9.256634712219238,-0.2231183648109436,-0.09162971377372742,-0.11209368705749512,-1.812563180923462,-0.48035913705825806,9.729216575622559,-0.3585776388645172,-0.2935205399990082,-0.1464548259973526,-1.8502501249313354,-0.8057830333709717,10.086943626403809,-0.3329212963581085,-0.2214384824037552,-0.06566796451807022,-1.9106688499450684,-0.8584251403808594,10.26341438293457,-0.14202606678009033,0.010079269297420979,0.07299833744764328,-1.8711873292922974,-0.8147560954093933,10.218548774719238,0.09651663154363632,0.17348559200763702,0.16157373785972595,-1.811964988708496,-0.7148557901382446,10.01994514465332,0.22357651591300964,0.16340632736682892,0.16752967238426208,-1.6767704486846924,-0.6287141442298889,9.773484230041504,0.2528980076313019,0.11194097250699997,0.12156209349632263,-1.7150555849075317,-0.5617151260375977,9.534799575805664,0.20402882993221283,0.10659590363502502,0.05345066636800766,-1.9208383560180664,-0.5724828243255615,9.42772102355957,0.060322895646095276,0.1127045527100563,0.02412915788590908,-2.0273189544677734,-0.5808576941490173,9.442078590393066,-0.0873536616563797,0.08261945843696594,0.03481929376721382,-1.9268203973770142,-0.4372883439064026,9.595218658447266,-0.18325942754745483,-0.007024944759905338,-0.013744457624852657
