label,sub_label,user,file_id,mobile_accel_x0,mobile_accel_y0,mobile_accel_z0,mobile_gyros_x0,mobile_gyros_y0,mobile_gyros_z0,mobile_accel_x1,mobile_accel_y1,mobile_accel_z1,mobile_gyros_x1,mobile_gyros_y1,mobile_gyros_z1,mobile_accel_x2,mobile_accel_y2,mobile_accel_z2,mobile_gyros_x2,mobile_gyros_y2,mobile_gyros_z2,mobile_accel_x3,mobile_accel_y3,mobile_accel_z3,mobile_gyros_x3,mobile_gyros_y3,mobile_gyros_z3,mobile_accel_x4,mobile_accel_y4,mobile_accel_z4,mobile_gyros_x4,mobile_gyros_y4,mobile_gyros_z4,mobile_accel_x5,mobile_accel_y5,mobile_accel_z5,mobile_gyros_x5,mobile_gyros_y5,mobile_gyros_z5,mobile_accel_x6,mobile_accel_y6,mobile_accel_z6,mobile_gyros_x6,mobile_gyros_y6,mobile_gyros_z6,mobile_accel_x7,mobile_accel_y7,mobile_accel_z7,mobile_gyros_x7,mobile_gyros_y7,mobile_gyros_z7,mobile_accel_x8,mobile_accel_y8,mobile_accel_z8,mobile_gyros_x8,mobile_gyros_y8,mobile_gyros_z8,mobile_accel_x9,mobile_accel_y9,mobile_accel_z9,mobile_gyros_x9,mobile_gyros_y9,mobile_gyros_z9,mobile_accel_x10,mobile_accel_y10,mobile_accel_z10,mobile_gyros_x10,mobile_gyros_y10,mobile_gyros_z10,mobile_accel_x11,mobile_accel_y11,mobile_accel_z11,mobile_gyros_x11,mobile_gyros_y11,mobile_gyros_z11,mobile_accel_x12,mobile_accel_y12,mobile_accel_z12,mobile_gyros_x12,mobile_gyros_y12,mobile_gyros_z12,mobile_accel_x13,mobile_accel_y13,mobile_accel_z13,mobile_gyros_x13,mobile_gyros_y13,mobile_gyros_z13,mobile_accel_x14,mobile_accel_y14,mobile_accel_z14,mobile_gyros_x14,mobile_gyros_y14,mobile_gyros_z14,mobile_accel_x15,mobile_accel_y15,mobile_accel_z15,mobile_gyros_x15,mobile_gyros_y15,mobile_gyros_z15,mobile_accel_x16,mobile_accel_y16,mobile_accel_z16,mobile_gyros_x16,mobile_gyros_y16,mobile_gyros_z16,mobile_accel_x17,mobile_accel_y17,mobile_accel_z17,mobile_gyros_x17,mobile_gyros_y17,mobile_gyros_z17,mobile_accel_x18,mobile_accel_y18,mobile_accel_z18,mobile_gyros_x18,mobile_gyros_y18,mobile_gyros_z18,mobile_accel_x19,mobile_accel_y19,mobile_accel_z19,mobile_gyros_x19,mobile_gyros_y19,mobile_gyros_z19,mobile_accel_x20,mobile_accel_y20,mobile_accel_z20,mobile_gyros_x20,mobile_gyros_y20,mobile_gyros_z20,mobile_accel_x21,mobile_accel_y21,mobile_accel_z21,mobile_gyros_x21,mobile_gyros_y21,mobile_gyros_z21,mobile_accel_x22,mobile_accel_y22,mobile_accel_z22,mobile_gyros_x22,mobile_gyros_y22,mobile_gyros_z22,mobile_accel_x23,mobile_accel_y23,mobile_accel_z23,mobile_gyros_x23,mobile_gyros_y23,mobile_gyros_z23,mobile_accel_x24,mobile_accel_y24,mobile_accel_z24,mobile_gyros_x24,mobile_gyros_y24,mobile_gyros_z24,mobile_accel_x25,mobile_accel_y25,mobile_accel_z25,mobile_gyros_x25,mobile_gyros_y25,mobile_gyros_z25,mobile_accel_x26,mobile_accel_y26,mobile_accel_z26,mobile_gyros_x26,mobile_gyros_y26,mobile_gyros_z26,mobile_accel_x27,mobile_accel_y27,mobile_accel_z27,mobile_gyros_x27,mobile_gyros_y27,mobile_gyros_z27,mobile_accel_x28,mobile_accel_y28,mobile_accel_z28,mobile_gyros_x28,mobile_gyros_y28,mobile_gyros_z28,mobile_accel_x29,mobile_accel_y29,mobile_accel_z29,mobile_gyros_x29,mobile_gyros_y29,mobile_gyros_z29,mobile_accel_x30,mobile_accel_y30,mobile_accel_z30,mobile_gyros_x30,mobile_gyros_y30,mobile_gyros_z30,mobile_accel_x31,mobile_accel_y31,mobile_accel_z31,mobile_gyros_x31,mobile_gyros_y31,mobile_gyros_z31,mobile_accel_x32,mobile_accel_y32,mobile_accel_z32,mobile_gyros_x32,mobile_gyros_y32,mobile_gyros_z32,mobile_accel_x33,mobile_accel_y33,mobile_accel_z33,mobile_gyros_x33,mobile_gyros_y33,mobile_gyros_z33,mobile_accel_x34,mobile_accel_y34,mobile_accel_z34,mobile_gyros_x34,mobile_gyros_y34,mobile_gyros_z34,mobile_accel_x35,mobile_accel_y35,mobile_accel_z35,mobile_gyros_x35,mobile_gyros_y35,mobile_gyros_z35,mobile_accel_x36,mobile_accel_y36,mobile_accel_z36,mobile_gyros_x36,mobile_gyros_y36,mobile_gyros_z36,mobile_accel_x37,mobile_accel_y37,mobile_accel_z37,mobile_gyros_x37,mobile_gyros_y37,mobile_gyros_z37,mobile_accel_x38,mobile_accel_y38,mobile_accel_z38,mobile_gyros_x38,mobile_gyros_y38,mobile_gyros_z38,mobile_accel_x39,mobile_accel_y39,mobile_accel_z39,mobile_gyros_x39,mobile_gyros_y39,mobile_gyros_z39,mobile_accel_x40,mobile_accel_y40,mobile_accel_z40,mobile_gyros_x40,mobile_gyros_y40,mobile_gyros_z40,mobile_accel_x41,mobile_accel_y41,mobile_accel_z41,mobile_gyros_x41,mobile_gyros_y41,mobile_gyros_z41,mobile_accel_x42,mobile_accel_y42,mobile_accel_z42,mobile_gyros_x42,mobile_gyros_y42,mobile_gyros_z42,mobile_accel_x43,mobile_accel_y43,mobile_accel_z43,mobile_gyros_x43,mobile_gyros_y43,mobile_gyros_z43,mobile_accel_x44,mobile_accel_y44,mobile_accel_z44,mobile_gyros_x44,mobile_gyros_y44,mobile_gyros_z44,mobile_accel_x45,mobile_accel_y45,mobile_accel_z45,mobile_gyros_x45,mobile_gyros_y45,mobile_gyros_z45,mobile_accel_x46,mobile_accel_y46,mobile_accel_z46,mobile_gyros_x46,mobile_gyros_y46,mobile_gyros_z46,mobile_accel_x47,mobile_accel_y47,mobile_accel_z47,mobile_gyros_x47,mobile_gyros_y47,mobile_gyros_z47,mobile_accel_x48,mobile_accel_y48,mobile_accel_z48,mobile_gyros_x48,mobile_gyros_y48,mobile_gyros_z48,mobile_accel_x49,mobile_accel_y49,mobile_accel_z49,mobile_gyros_x49,mobile_gyros_y49,mobile_gyros_z49,mobile_accel_x50,mobile_accel_y50,mobile_accel_z50,mobile_gyros_x50,mobile_gyros_y50,mobile_gyros_z50
random,999,201,201_999_260411205252764,-3.2368907928466797,6.474977970123291,-0.16869398951530457,1.211039423942566,-1.8758130073547363,-0.04001164436340332,-4.265206336975098,6.052046775817871,-0.877567708492279,1.3813179731369019,-2.1813981533050537,0.3222311735153198,-5.157131195068359,5.150550842285156,-2.2654049396514893,1.281441569328308,-2.411083221435547,0.8217658400535583,-5.5591254234313965,4.202992916107178,-3.0789644718170166,0.9495893120765686,-2.5103487968444824,1.3431389331817627,-5.181657314300537,2.550748825073242,-2.9730820655822754,0.5190823674201965,-2.693302869796753,1.9503384828567505,-3.6023945808410645,1.1312068700790405,-1.3142578601837158,-0.02825249545276165,-2.699716806411743,2.617708206176758,-0.7238288521766663,-0.18305093050003052,2.3880369663238525,-0.7790052890777588,-2.1812453269958496,3.559661865234375,3.243471145629883,-1.357926845550537,6.940980434417725,-1.4327833652496338,-1.0914626121520996,4.7065606117248535,7.956733703613281,-1.6875381469726562,10.470992088317871,-1.835801362991333,0.3133736252784729,5.774199485778809,14.202000617980957,-0.5712863802909851,14.264812469482422,-1.6021455526351929,1.826332926750183,6.357422351837158,22.454248428344727,3.573082447052002,16.63370704650879,0.023976443335413933,2.2444698810577393,5.786874771118164,28.80360221862793,6.949953556060791,15.449259757995605,1.9213224649429321,2.2676827907562256,4.107149124145508,29.851659774780273,7.564908981323242,11.029117584228516,2.646266222000122,2.677114963531494,2.330601930618286,27.091537475585938,7.176673412322998,7.4979095458984375,2.6998696327209473,3.3324201107025146,1.1968368291854858,26.319852828979492,7.966304779052734,4.774279594421387,2.6535966396331787,3.95137882232666,0.32039856910705566,26.392833709716797,9.68913745880127,0.7914260625839233,2.4373505115509033,4.056905746459961,-0.8694133162498474,23.93480682373047,9.414560317993164,-1.9657038450241089,2.204458236694336,3.442375659942627,-2.2304201126098633,19.488344192504883,6.780063152313232,-2.6261229515075684,2.0572397708892822,2.5130977630615234,-3.1496188640594482,15.034703254699707,4.501497745513916,-3.308675527572632,1.9620976448059082,1.3136646747589111,-3.576766014099121,11.13619613647461,3.356531858444214,-3.157329559326172,1.8513784408569336,0.37461283802986145,-3.894873857498169,7.548757076263428,2.335394859313965,-3.754936933517456,1.5853468179702759,-0.3987419903278351,-3.978867769241333,4.451846599578857,2.2366909980773926,-3.665804386138916,1.2429571151733398,-0.8764382600784302,-3.950615167617798,1.042074203491211,2.1786649227142334,-3.999603033065796,0.8898772597312927,-1.2588396072387695,-3.707185745239258,-1.5780665874481201,2.1266210079193115,-4.1347975730896,0.4237874448299408,-1.719584345817566,-3.1919212341308594,-3.284747362136841,2.806182861328125,-3.2554352283477783,-0.2419024556875229,-1.9423972368240356,-2.453996419906616,-3.5736806392669678,3.9110686779022217,-1.5583257675170898,-0.966846227645874,-1.8348851203918457,-1.724318504333496,-2.485544443130493,4.586442947387695,0.31465616822242737,-1.666439175605774,-1.5636610984802246,-1.193324327468872,-1.6348960399627686,5.333003520965576,2.32761812210083,-2.287841320037842,-1.2902991771697998,-0.8384119272232056,-0.28534409403800964,6.270391941070557,4.992624282836914,-2.5196645259857178,-1.1745402812957764,-0.7082977294921875,0.8913264274597168,6.390631198883057,7.500302791595459,-2.302502155303955,-1.1808016300201416,-0.6947059631347656,1.0109676122665405,6.061617851257324,9.492925643920898,-1.7988440990447998,-1.0920735597610474,-0.596662163734436,0.8123632669448853,5.889334678649902,10.673783302307129,-1.131779670715332,-0.7409789562225342,-0.37583455443382263,0.8183453679084778,6.01675271987915,10.303494453430176,-0.48960810899734497,-0.37552911043167114,-0.10461059212684631,0.9984052777290344,6.318248271942139,8.957531929016113,-0.05757400393486023,-0.09468404203653336,0.12614357471466064,1.3411771059036255,6.698108673095703,7.502097129821777,0.2084576040506363,0.051159925758838654,0.291229784488678,1.9124635457992554,7.429116249084473,6.227321147918701,0.28985533118247986,0.12278381735086441,0.3338375985622406,1.8693926334381104,7.837092399597168,5.602794170379639,0.2808450758457184,0.16798780858516693,0.34865108132362366,1.7258232831954956,8.114660263061523,5.080560684204102,0.24953825771808624,0.19853104650974274,0.3943132162094116,2.2600209712982178,8.38145923614502,4.704289436340332,0.2087630331516266,0.14523309469223022,0.4376846253871918,3.139383316040039,9.023932456970215,4.812564373016357,0.12950333952903748,0.13332124054431915,0.3721693754196167,3.728017568588257,9.189635276794434,5.139782905578613,0.10063996911048889,0.12812888622283936,0.22876885533332825,3.6496527194976807,8.780462265014648,5.406582832336426,0.12018764764070511,0.21930044889450073,0.12583814561367035,3.3134610652923584,8.449654579162598,5.24327278137207,0.21899501979351044,0.2608392536640167,0.12751802802085876,3.4995031356811523,8.388039588928223,4.859224796295166,0.30741769075393677,0.24144430458545685,0.10674861818552017,3.40079927444458,8.295317649841309,4.420739650726318,0.32131487131118774,0.21517711877822876,0.04841103404760361,3.159722328186035,8.105687141418457,4.17427921295166,0.2548833191394806,0.21120649576187134,0.018784092739224434,3.0113673210144043,7.92861795425415,4.092923164367676,0.21899501979351044,0.1724165827035904,0.010995565913617611,2.9108686447143555,7.835297584533691,4.117449760437012,0.20158538222312927,0.13179408013820648,0.026572618633508682,2.8486554622650146,7.8418779373168945,4.227519512176514,0.18325942754745483,0.13622283935546875,0.061391908675432205,2.8013970851898193,7.80837869644165,4.2006001472473145,0.16936226189136505,0.14110976457595825,0.10919208079576492,2.9353952407836914,8.076972961425781,4.112663745880127,0.15790854394435883,0.09789107739925385,0.1363755613565445
