label,sub_label,user,file_id,watch_accel_x0,watch_accel_y0,watch_accel_z0,watch_gyros_x0,watch_gyros_y0,watch_gyros_z0,watch_accel_x1,watch_accel_y1,watch_accel_z1,watch_gyros_x1,watch_gyros_y1,watch_gyros_z1,watch_accel_x2,watch_accel_y2,watch_accel_z2,watch_gyros_x2,watch_gyros_y2,watch_gyros_z2,watch_accel_x3,watch_accel_y3,watch_accel_z3,watch_gyros_x3,watch_gyros_y3,watch_gyros_z3,watch_accel_x4,watch_accel_y4,watch_accel_z4,watch_gyros_x4,watch_gyros_y4,watch_gyros_z4,watch_accel_x5,watch_accel_y5,watch_accel_z5,watch_gyros_x5,watch_gyros_y5,watch_gyros_z5,watch_accel_x6,watch_accel_y6,watch_accel_z6,watch_gyros_x6,watch_gyros_y6,watch_gyros_z6,watch_accel_x7,watch_accel_y7,watch_accel_z7,watch_gyros_x7,watch_gyros_y7,watch_gyros_z7,watch_accel_x8,watch_accel_y8,watch_accel_z8,watch_gyros_x8,watch_gyros_y8,watch_gyros_z8,watch_accel_x9,watch_accel_y9,watch_accel_z9,watch_gyros_x9,watch_gyros_y9,watch_gyros_z9,watch_accel_x10,watch_accel_y10,watch_accel_z10,watch_gyros_x10,watch_gyros_y10,watch_gyros_z10,watch_accel_x11,watch_accel_y11,watch_accel_z11,watch_gyros_x11,watch_gyros_y11,watch_gyros_z11,watch_accel_x12,watch_accel_y12,watch_accel_z12,watch_gyros_x12,watch_gyros_y12,watch_gyros_z12,watch_accel_x13,watch_accel_y13,watch_accel_z13,watch_gyros_x13,watch_gyros_y13,watch_gyros_z13,watch_accel_x14,watch_accel_y14,watch_accel_z14,watch_gyros_x14,watch_gyros_y14,watch_gyros_z14,watch_accel_x15,watch_accel_y15,watch_accel_z15,watch_gyros_x15,watch_gyros_y15,watch_gyros_z15,watch_accel_x16,watch_accel_y16,watch_accel_z16,watch_gyros_x16,watch_gyros_y16,watch_gyros_z16,watch_accel_x17,watch_accel_y17,watch_accel_z17,watch_gyros_x17,watch_gyros_y17,watch_gyros_z17,watch_accel_x18,watch_accel_y18,watch_accel_z18,watch_gyros_x18,watch_gyros_y18,watch_gyros_z18,watch_accel_x19,watch_accel_y19,watch_accel_z19,watch_gyros_x19,watch_gyros_y19,watch_gyros_z19,watch_accel_x20,watch_accel_y20,watch_accel_z20,watch_gyros_x20,watch_gyros_y20,watch_gyros_z20,watch_accel_x21,watch_accel_y21,watch_accel_z21,watch_gyros_x21,watch_gyros_y21,watch_gyros_z21,watch_accel_x22,watch_accel_y22,watch_accel_z22,watch_gyros_x22,watch_gyros_y22,watch_gyros_z22,watch_accel_x23,watch_accel_y23,watch_accel_z23,watch_gyros_x23,watch_gyros_y23,watch_gyros_z23,watch_accel_x24,watch_accel_y24,watch_accel_z24,watch_gyros_x24,watch_gyros_y24,watch_gyros_z24,watch_accel_x25,watch_accel_y25,watch_accel_z25,watch_gyros_x25,watch_gyros_y25,watch_gyros_z25,watch_accel_x26,watch_accel_y26,watch_accel_z26,watch_gyros_x26,watch_gyros_y26,watch_gyros_z26,watch_accel_x27,watch_accel_y27,watch_accel_z27,watch_gyros_x27,watch_gyros_y27,watch_gyros_z27,watch_accel_x28,watch_accel_y28,watch_accel_z28,watch_gyros_x28,watch_gyros_y28,watch_gyros_z28,watch_accel_x29,watch_accel_y29,watch_accel_z29,watch_gyros_x29,watch_gyros_y29,watch_gyros_z29,watch_accel_x30,watch_accel_y30,watch_accel_z30,watch_gyros_x30,watch_gyros_y30,watch_gyros_z30,watch_accel_x31,watch_accel_y31,watch_accel_z31,watch_gyros_x31,watch_gyros_y31,watch_gyros_z31,watch_accel_x32,watch_accel_y32,watch_accel_z32,watch_gyros_x32,watch_gyros_y32,watch_gyros_z32,watch_accel_x33,watch_accel_y33,watch_accel_z33,watch_gyros_x33,watch_gyros_y33,watch_gyros_z33,watch_accel_x34,watch_accel_y34,watch_accel_z34,watch_gyros_x34,watch_gyros_y34,watch_gyros_z34,watch_accel_x35,watch_accel_y35,watch_accel_z35,watch_gyros_x35,watch_gyros_y35,watch_gyros_z35,watch_accel_x36,watch_accel_y36,watch_accel_z36,watch_gyros_x36,watch_gyros_y36,watch_gyros_z36,watch_accel_x37,watch_accel_y37,watch_accel_z37,watch_gyros_x37,watch_gyros_y37,watch_gyros_z37,watch_accel_x38,watch_accel_y38,watch_accel_z38,watch_gyros_x38,watch_gyros_y38,watch_gyros_z38,watch_accel_x39,watch_accel_y39,watch_accel_z39,watch_gyros_x39,watch_gyros_y39,watch_gyros_z39,watch_accel_x40,watch_accel_y40,watch_accel_z40,watch_gyros_x40,watch_gyros_y40,watch_gyros_z40,watch_accel_x41,watch_accel_y41,watch_accel_z41,watch_gyros_x41,watch_gyros_y41,watch_gyros_z41,watch_accel_x42,watch_accel_y42,watch_accel_z42,watch_gyros_x42,watch_gyros_y42,watch_gyros_z42,watch_accel_x43,watch_accel_y43,watch_accel_z43,watch_gyros_x43,watch_gyros_y43,watch_gyros_z43,watch_accel_x44,watch_accel_y44,watch_accel_z44,watch_gyros_x44,watch_gyros_y44,watch_gyros_z44,watch_accel_x45,watch_accel_y45,watch_accel_z45,watch_gyros_x45,watch_gyros_y45,watch_gyros_z45,watch_accel_x46,watch_accel_y46,watch_accel_z46,watch_gyros_x46,watch_gyros_y46,watch_gyros_z46,watch_accel_x47,watch_accel_y47,watch_accel_z47,watch_gyros_x47,watch_gyros_y47,watch_gyros_z47,watch_accel_x48,watch_accel_y48,watch_accel_z48,watch_gyros_x48,watch_gyros_y48,watch_gyros_z48,watch_accel_x49,watch_accel_y49,watch_accel_z49,watch_gyros_x49,watch_gyros_y49,watch_gyros_z49,watch_accel_x50,watch_accel_y50,watch_accel_z50,watch_gyros_x50,watch_gyros_y50,watch_gyros_z50,watch_accel_x51,watch_accel_y51,watch_accel_z51,watch_gyros_x51,watch_gyros_y51,watch_gyros_z51
shake,10202,202,202_10202_260412120635149,-1.072602391242981,-9.330204010009766,-6.2416839599609375,-0.23090706765651703,0.1466076523065567,-0.5448917746543884,-2.0590133666992188,-10.04846477508545,-6.253654956817627,-0.16859880089759827,0.08185594528913498,-0.5729916095733643,-3.2824504375457764,-11.868058204650879,-7.067683219909668,-0.2382374405860901,-0.11850785464048386,-0.6438519954681396,-2.892195701599121,-14.417882919311523,-9.41639518737793,-0.24678955972194672,-0.39095374941825867,-0.5009095072746277,-0.6224924325942993,-18.069040298461914,-11.920730590820312,-0.009773843921720982,-1.0128145217895508,-0.036651913076639175,1.1779472827911377,-20.159177780151367,-14.302961349487305,1.5503759384155273,-1.4770721197128296,1.1239920854568481,4.651933670043945,-19.797653198242188,-14.889540672302246,1.8887953758239746,-2.2272145748138428,2.3322834968566895,5.935225963592529,-17.779342651367188,-11.173739433288574,0.17470745742321014,-3.293785333633423,4.169765949249268,2.8826189041137695,-15.569493293762207,-10.541669845581055,-1.0885618925094604,-3.6884043216705322,5.072625160217285,-0.33279404044151306,-12.667720794677734,-8.245630264282227,-1.930334210395813,-4.1942009925842285,5.803219795227051,-1.1827356815338135,-10.8720703125,-2.853888511657715,0.05375614017248154,-4.643797397613525,6.067113399505615,1.1659762859344482,-1.4915876388549805,3.2154128551483154,2.5754079818725586,-4.218635559082031,6.285803318023682,2.3942017555236816,7.268796443939209,4.750096321105957,2.8930578231811523,-2.735454559326172,5.582086563110352,0.07182604819536209,10.864887237548828,5.17626428604126,0.7367035150527954,-2.109928607940674,4.327369213104248,-3.064578056335449,10.769119262695312,6.926425457000732,-0.769690215587616,-1.626123309135437,2.995683193206787,-3.0597896575927734,9.121908187866211,8.032546997070312,-1.2412781715393066,-0.6450737118721008,0.9456194043159485,-3.442862033843994,6.14831018447876,4.534617900848389,-0.5742133259773254,0.2272418737411499,-0.28588494658470154,-4.07014274597168,4.608838081359863,0.6057330369949341,0.8491026759147644,1.1679743528366089,-1.8167132139205933,-4.649539470672607,3.0310592651367188,-0.6560112833976746,1.2424999475479126,1.4110987186431885,-2.5509731769561768,-5.329493045806885,1.3311761617660522,0.9983820915222168,1.1044443845748901,1.6114624738693237,-3.2143728733062744,-5.145139217376709,-1.7908629179000854,2.0638017654418945,-0.2871066629886627,1.8106045722961426,-3.866776943206787,-4.6255974769592285,-4.592078685760498,0.5315127968788147,-0.7745771408081055,2.1453588008880615,-3.971845865249634,-3.976768970489502,-9.301473617553711,-4.651933670043945,-0.960280179977417,2.3689353466033936,-3.9046506881713867,-5.329493045806885,-10.69489860534668,-6.555324077606201,0.045204028487205505,2.1844542026519775,-3.645643711090088,-4.831499099731445,-11.980585098266602,-6.13633918762207,0.7757988572120667,1.8887953758239746,-3.371976137161255,-2.561795711517334,-13.194445610046387,-4.4077253341674805,0.04642575979232788,1.5344934463500977,-2.687807083129883,-2.9688100814819336,-12.926295280456543,-4.651933670043945,-0.4105014503002167,1.5063936710357666,-2.3469443321228027,-3.270479440689087,-14.348450660705566,-8.904036521911621,-0.4300491213798523,1.3732250928878784,-1.8863518238067627,-1.778891921043396,-15.753847122192383,-9.792284965515137,0.4288274049758911,0.7464773058891296,-1.177748203277588,-2.6384103298187256,-13.278243064880371,-5.552153587341309,0.9896016716957092,0.3933972120285034,-0.7770205736160278,-3.77565598487854,-10.20648193359375,-3.7612907886505127,0.4141666293144226,0.19547687470912933,-0.2773328125476837,-3.60566782951355,-10.050858497619629,-4.24970817565918,-0.5167919993400574,0.12339477986097336,-0.09773843735456467,-3.9815573692321777,-10.78587818145752,-5.4659624099731445,-0.7257078886032104,0.042760565876960754,0.04153883829712868,-3.9480385780334473,-10.292673110961914,-5.216965675354004,-0.24923302233219147,-0.07452555745840073,0.1466076523065567,-3.643975019454956,-9.198522567749023,-3.9647979736328125,0.18936823308467865,-0.14782938361167908,0.2272418737411499,-3.3518824577331543,-7.884106159210205,-2.9448680877685547,0.3481931984424591,-0.11728613078594208,0.22846360504627228,-2.9879636764526367,-7.60637903213501,-3.313575267791748,0.17470745742321014,-0.05009094998240471,0.18325957655906677,-2.473210334777832,-7.833827972412109,-4.005499362945557,0.03420845419168472,-0.04153883829712868,0.13561208546161652,-2.5929205417633057,-7.94635534286499,-4.084507942199707,-0.03298672288656235,-0.05497787147760391,0.07330382615327835,-2.7437551021575928,-7.982268333435059,-3.950432777404785,-0.006108652334660292,-0.059864792972803116,0.05497787147760391,-2.7557260990142822,-7.915230751037598,-3.9169139862060547,0.09773843735456467,-0.045204028487205505,0.05497787147760391,-2.7509377002716064,-7.888894557952881,-4.158728122711182,0.10018189996480942,-0.02687807008624077,0.0354301854968071,-2.868253707885742,-7.99184513092041,-4.20421838760376,0.006108652334660292,-0.028099801391363144,0.00733038317412138,-3.1866824626922607,-8.075642585754395,-3.9887399673461914,-0.04153883829712868,-0.03420845419168472,-0.02932153269648552,-3.3063924312591553,-8.195352554321289,-3.957615375518799,-0.06963863968849182,-0.039095375686883926,-0.028099801391363144,-3.2585084438323975,-8.487444877624512,-4.062960147857666,-0.09651670604944229,-0.051312681287527084,-0.025656340643763542,-3.5051112174987793,-8.391676902770996,-3.869029998779297,-0.02932153269648552,-0.0354301854968071,-0.00855211354792118,-3.584120035171509,-8.26239013671875,-3.778050184249878,-0.04764748737215996,-0.0354301854968071,0.006108652334660292,-3.464409828186035,-8.288725852966309,-3.691859006881714,-0.15760323405265808,-0.02321287989616394,-0.00855211354792118,-3.3877954483032227,-8.233659744262695,-3.7924153804779053,-0.19425514340400696,-0.00366519158706069,-0.02321287989616394,-3.335123062133789,-8.38449478149414,-3.778050184249878,-0.21991148591041565,0.013439035043120384,-0.030543262138962746,-3.5673606395721436,-8.583212852478027,-3.7612907886505127,-0.15515977144241333,0.03787364438176155,-0.02687807008624077
