label,sub_label,user,file_id,mobile_accel_x0,mobile_accel_y0,mobile_accel_z0,mobile_gyros_x0,mobile_gyros_y0,mobile_gyros_z0,mobile_accel_x1,mobile_accel_y1,mobile_accel_z1,mobile_gyros_x1,mobile_gyros_y1,mobile_gyros_z1,mobile_accel_x2,mobile_accel_y2,mobile_accel_z2,mobile_gyros_x2,mobile_gyros_y2,mobile_gyros_z2,mobile_accel_x3,mobile_accel_y3,mobile_accel_z3,mobile_gyros_x3,mobile_gyros_y3,mobile_gyros_z3,mobile_accel_x4,mobile_accel_y4,mobile_accel_z4,mobile_gyros_x4,mobile_gyros_y4,mobile_gyros_z4,mobile_accel_x5,mobile_accel_y5,mobile_accel_z5,mobile_gyros_x5,mobile_gyros_y5,mobile_gyros_z5,mobile_accel_x6,mobile_accel_y6,mobile_accel_z6,mobile_gyros_x6,mobile_gyros_y6,mobile_gyros_z6,mobile_accel_x7,mobile_accel_y7,mobile_accel_z7,mobile_gyros_x7,mobile_gyros_y7,mobile_gyros_z7,mobile_accel_x8,mobile_accel_y8,mobile_accel_z8,mobile_gyros_x8,mobile_gyros_y8,mobile_gyros_z8,mobile_accel_x9,mobile_accel_y9,mobile_accel_z9,mobile_gyros_x9,mobile_gyros_y9,mobile_gyros_z9,mobile_accel_x10,mobile_accel_y10,mobile_accel_z10,mobile_gyros_x10,mobile_gyros_y10,mobile_gyros_z10,mobile_accel_x11,mobile_accel_y11,mobile_accel_z11,mobile_gyros_x11,mobile_gyros_y11,mobile_gyros_z11,mobile_accel_x12,mobile_accel_y12,mobile_accel_z12,mobile_gyros_x12,mobile_gyros_y12,mobile_gyros_z12,mobile_accel_x13,mobile_accel_y13,mobile_accel_z13,mobile_gyros_x13,mobile_gyros_y13,mobile_gyros_z13,mobile_accel_x14,mobile_accel_y14,mobile_accel_z14,mobile_gyros_x14,mobile_gyros_y14,mobile_gyros_z14,mobile_accel_x15,mobile_accel_y15,mobile_accel_z15,mobile_gyros_x15,mobile_gyros_y15,mobile_gyros_z15,mobile_accel_x16,mobile_accel_y16,mobile_accel_z16,mobile_gyros_x16,mobile_gyros_y16,mobile_gyros_z16,mobile_accel_x17,mobile_accel_y17,mobile_accel_z17,mobile_gyros_x17,mobile_gyros_y17,mobile_gyros_z17,mobile_accel_x18,mobile_accel_y18,mobile_accel_z18,mobile_gyros_x18,mobile_gyros_y18,mobile_gyros_z18,mobile_accel_x19,mobile_accel_y19,mobile_accel_z19,mobile_gyros_x19,mobile_gyros_y19,mobile_gyros_z19,mobile_accel_x20,mobile_accel_y20,mobile_accel_z20,mobile_gyros_x20,mobile_gyros_y20,mobile_gyros_z20,mobile_accel_x21,mobile_accel_y21,mobile_accel_z21,mobile_gyros_x21,mobile_gyros_y21,mobile_gyros_z21,mobile_accel_x22,mobile_accel_y22,mobile_accel_z22,mobile_gyros_x22,mobile_gyros_y22,mobile_gyros_z22,mobile_accel_x23,mobile_accel_y23,mobile_accel_z23,mobile_gyros_x23,mobile_gyros_y23,mobile_gyros_z23,mobile_accel_x24,mobile_accel_y24,mobile_accel_z24,mobile_gyros_x24,mobile_gyros_y24,mobile_gyros_z24,mobile_accel_x25,mobile_accel_y25,mobile_accel_z25,mobile_gyros_x25,mobile_gyros_y25,mobile_gyros_z25,mobile_accel_x26,mobile_accel_y26,mobile_accel_z26,mobile_gyros_x26,mobile_gyros_y26,mobile_gyros_z26,mobile_accel_x27,mobile_accel_y27,mobile_accel_z27,mobile_gyros_x27,mobile_gyros_y27,mobile_gyros_z27,mobile_accel_x28,mobile_accel_y28,mobile_accel_z28,mobile_gyros_x28,mobile_gyros_y28,mobile_gyros_z28,mobile_accel_x29,mobile_accel_y29,mobile_accel_z29,mobile_gyros_x29,mobile_gyros_y29,mobile_gyros_z29,mobile_accel_x30,mobile_accel_y30,mobile_accel_z30,mobile_gyros_x30,mobile_gyros_y30,mobile_gyros_z30,mobile_accel_x31,mobile_accel_y31,mobile_accel_z31,mobile_gyros_x31,mobile_gyros_y31,mobile_gyros_z31,mobile_accel_x32,mobile_accel_y32,mobile_accel_z32,mobile_gyros_x32,mobile_gyros_y32,mobile_gyros_z32,mobile_accel_x33,mobile_accel_y33,mobile_accel_z33,mobile_gyros_x33,mobile_gyros_y33,mobile_gyros_z33,mobile_accel_x34,mobile_accel_y34,mobile_accel_z34,mobile_gyros_x34,mobile_gyros_y34,mobile_gyros_z34,mobile_accel_x35,mobile_accel_y35,mobile_accel_z35,mobile_gyros_x35,mobile_gyros_y35,mobile_gyros_z35,mobile_accel_x36,mobile_accel_y36,mobile_accel_z36,mobile_gyros_x36,mobile_gyros_y36,mobile_gyros_z36,mobile_accel_x37,mobile_accel_y37,mobile_accel_z37,mobile_gyros_x37,mobile_gyros_y37,mobile_gyros_z37,mobile_accel_x38,mobile_accel_y38,mobile_accel_z38,mobile_gyros_x38,mobile_gyros_y38,mobile_gyros_z38,mobile_accel_x39,mobile_accel_y39,mobile_accel_z39,mobile_gyros_x39,mobile_gyros_y39,mobile_gyros_z39,mobile_accel_x40,mobile_accel_y40,mobile_accel_z40,mobile_gyros_x40,mobile_gyros_y40,mobile_gyros_z40,mobile_accel_x41,mobile_accel_y41,mobile_accel_z41,mobile_gyros_x41,mobile_gyros_y41,mobile_gyros_z41,mobile_accel_x42,mobile_accel_y42,mobile_accel_z42,mobile_gyros_x42,mobile_gyros_y42,mobile_gyros_z42,mobile_accel_x43,mobile_accel_y43,mobile_accel_z43,mobile_gyros_x43,mobile_gyros_y43,mobile_gyros_z43,mobile_accel_x44,mobile_accel_y44,mobile_accel_z44,mobile_gyros_x44,mobile_gyros_y44,mobile_gyros_z44,mobile_accel_x45,mobile_accel_y45,mobile_accel_z45,mobile_gyros_x45,mobile_gyros_y45,mobile_gyros_z45,mobile_accel_x46,mobile_accel_y46,mobile_accel_z46,mobile_gyros_x46,mobile_gyros_y46,mobile_gyros_z46,mobile_accel_x47,mobile_accel_y47,mobile_accel_z47,mobile_gyros_x47,mobile_gyros_y47,mobile_gyros_z47,mobile_accel_x48,mobile_accel_y48,mobile_accel_z48,mobile_gyros_x48,mobile_gyros_y48,mobile_gyros_z48,mobile_accel_x49,mobile_accel_y49,mobile_accel_z49,mobile_gyros_x49,mobile_gyros_y49,mobile_gyros_z49,mobile_accel_x50,mobile_accel_y50,mobile_accel_z50,mobile_gyros_x50,mobile_gyros_y50,mobile_gyros_z50
shake,10301,101,101_10301_260326125008917,-0.5395814776420593,-1.677966833114624,17.99402618408203,-1.208443284034729,0.6597339510917664,-0.33231043815612793,-2.100898265838623,-2.620738983154297,18.192031860351562,-0.6021599769592285,0.8205441236495972,0.024892739951610565,-3.796213150024414,-3.769293785095215,19.069599151611328,0.19135339558124542,0.7073814272880554,0.4712821841239929,-3.9326040744781494,-3.9499518871307373,18.725032806396484,0.988990068435669,0.3750709891319275,0.7721330523490906,-2.950948476791382,-3.415156126022339,17.291732788085938,1.4228568077087402,-0.023976443335413933,0.7959567904472351,-2.0231316089630127,-2.779263496398926,15.780067443847656,1.616500973701477,-0.3529271185398102,0.5677987933158875,-1.5726827383041382,-2.410170555114746,14.178071975708008,1.7110322713851929,-0.4744892120361328,0.38988444209098816,-1.6396816968917847,-1.8424733877182007,12.249457359313965,1.7762420177459717,-0.5021308660507202,0.4228711426258087,-1.6378871202468872,-1.420140266418457,9.89850902557373,1.7095050811767578,-0.5856665968894958,0.5201513767242432,-1.1018948554992676,-0.9822536706924438,8.292326927185059,1.6032146215438843,-0.6597339510917664,0.5389354228973389,-0.589830756187439,-0.582054078578949,7.069594383239746,1.4737112522125244,-0.6815723776817322,0.471587598323822,-0.5850451588630676,-0.3074777126312256,5.894718647003174,1.3070979118347168,-0.711046576499939,0.3750709891319275,-0.6191428303718567,-0.40677985548973083,4.83051061630249,1.1076505184173584,-0.7716749310493469,0.2909243404865265,-0.24047867953777313,-0.5246263742446899,4.452444553375244,0.9523382186889648,-0.7467821836471558,0.20127993822097778,0.19740787148475647,-0.4097708761692047,4.207778453826904,0.8277217745780945,-0.5642863512039185,0.12034036219120026,0.054436713457107544,-0.11605189740657806,3.796213150024414,0.6583595275878906,-0.346513032913208,0.11117739230394363,-0.09212367236614227,0.2566302418708801,3.2063822746276855,0.4013381600379944,-0.18035782873630524,0.10476330667734146,0.1704886108636856,0.34576287865638733,2.9276185035705566,0.043371398001909256,-0.06352993845939636,0.0720820426940918,0.6281159520149231,0.2267199456691742,3.768097400665283,-0.21227550506591797,0.09040798991918564,-0.05528326332569122,0.8823533654212952,0.4127618968486786,4.292723655700684,-0.5007563829421997,0.33490660786628723,-0.2516762912273407,0.42771705985069275,0.8458628058433533,5.259424209594727,-0.8573487401008606,0.5261073112487793,-0.4425715208053589,0.0364905446767807,1.0001999139785767,6.366104602813721,-1.232114315032959,0.6365211009979248,-0.545502245426178,-0.8123632669448853,0.7304090857505798,7.828119277954102,-1.5607595443725586,0.5621483325958252,-0.5227475166320801,-1.451246976852417,-0.05144568532705307,9.494720458984375,-1.6514729261398315,0.38988444209098816,-0.45769044756889343,-0.7752745151519775,-0.32721850275993347,10.487143516540527,-1.6479604244232178,0.31719154119491577,-0.46257734298706055,-0.381655216217041,-0.41994038224220276,11.680563926696777,-1.6736167669296265,0.4964803457260132,-0.4608974754810333,-1.5756736993789673,-1.0109676122665405,12.630514144897461,-1.5070034265518188,0.5465712547302246,-0.3712530732154846,-1.9800606966018677,-1.3800604343414307,13.186247825622559,-1.271056890487671,0.45646870136260986,-0.22968515753746033,-1.43389892578125,-1.1425727605819702,13.759926795959473,-1.153923511505127,0.5604684352874756,-0.10903936624526978,-2.592623233795166,-1.1084750890731812,14.159527778625488,-1.0723731517791748,0.5729911923408508,0.03558287397027016,-3.772883176803589,-1.7593228816986084,14.188241958618164,-0.8495602011680603,0.2179260104894638,0.13500112295150757,-3.3403804302215576,-2.3497519493103027,14.12842082977295,-0.4676169753074646,-0.18402300775051117,0.09040798991918564,-2.1888344287872314,-2.530410051345825,13.487743377685547,-0.17821979522705078,-0.3533852696418762,0.059864748269319534,-1.4470595121383667,-2.4705893993377686,13.024731636047363,0.10735948383808136,-0.3529271185398102,0.1311832070350647,-1.0995019674301147,-2.4424736499786377,12.169896125793457,0.38957902789115906,-0.2683223485946655,0.2663370370864868,-0.8105686902999878,-2.3306093215942383,11.102697372436523,0.5784889459609985,-0.18890993297100067,0.38530296087265015,-0.5186443328857422,-2.0829520225524902,10.26640510559082,0.6856957077980042,-0.16600249707698822,0.3943132162094116,-0.4085744619369507,-1.8089739084243774,9.596415519714355,0.7157807946205139,-0.1568395346403122,0.32559093832969666,-0.36251261830329895,-1.3698909282684326,8.98086166381836,0.6107120513916016,-0.14660754799842834,0.24740023910999298,-0.3284149169921875,-1.0133603811264038,8.636893272399902,0.4221075773239136,-0.15149445831775665,0.13988803327083588,-0.37447673082351685,-0.9224331378936768,8.62014389038086,0.2889390289783478,-0.19165882468223572,0.01282816007733345,-0.5539384484291077,-1.0803594589233398,8.789435386657715,0.23655737936496735,-0.2182314395904541,-0.06704241037368774,-0.4815555512905121,-1.1497513055801392,8.803792953491211,0.17608177661895752,-0.14950916171073914,-0.04825831577181816,-0.5712863802909851,-1.0307083129882812,9.010173797607422,0.11316270381212234,-0.035735588520765305,0.020922118797898293,-0.8626125454902649,-0.9296116232872009,9.084351539611816,0.06582067906856537,-0.009773836471140385,0.06444623321294785,-0.8626125454902649,-0.7501499056816101,9.163313865661621,0.027030766010284424,-0.04062250629067421,0.024434590712189674,-0.7752745151519775,-0.7591229677200317,9.21416187286377,-0.07070759683847427,-0.04627300798892975,-0.04153880476951599,-0.8745766878128052,-0.9272187948226929,9.42772102355957,-0.15042544901371002,-0.04108065739274025,-0.08292489498853683,-0.898504912853241,-1.0558329820632935,9.730413436889648,-0.15409064292907715,-0.012522728182375431,-0.10125083476305008,-0.9026923179626465,-1.0845468044281006,9.81535816192627,-0.1438586562871933,0.011453714221715927,-0.0850629210472107,-0.9649057388305664,-1.150349497795105,9.949356079101562,-0.09957095980644226,0.02519817277789116,-0.04841103404760361
