label,sub_label,user,file_id,watch_accel_x0,watch_accel_y0,watch_accel_z0,watch_gyros_x0,watch_gyros_y0,watch_gyros_z0,watch_accel_x1,watch_accel_y1,watch_accel_z1,watch_gyros_x1,watch_gyros_y1,watch_gyros_z1,watch_accel_x2,watch_accel_y2,watch_accel_z2,watch_gyros_x2,watch_gyros_y2,watch_gyros_z2,watch_accel_x3,watch_accel_y3,watch_accel_z3,watch_gyros_x3,watch_gyros_y3,watch_gyros_z3,watch_accel_x4,watch_accel_y4,watch_accel_z4,watch_gyros_x4,watch_gyros_y4,watch_gyros_z4,watch_accel_x5,watch_accel_y5,watch_accel_z5,watch_gyros_x5,watch_gyros_y5,watch_gyros_z5,watch_accel_x6,watch_accel_y6,watch_accel_z6,watch_gyros_x6,watch_gyros_y6,watch_gyros_z6,watch_accel_x7,watch_accel_y7,watch_accel_z7,watch_gyros_x7,watch_gyros_y7,watch_gyros_z7,watch_accel_x8,watch_accel_y8,watch_accel_z8,watch_gyros_x8,watch_gyros_y8,watch_gyros_z8,watch_accel_x9,watch_accel_y9,watch_accel_z9,watch_gyros_x9,watch_gyros_y9,watch_gyros_z9,watch_accel_x10,watch_accel_y10,watch_accel_z10,watch_gyros_x10,watch_gyros_y10,watch_gyros_z10,watch_accel_x11,watch_accel_y11,watch_accel_z11,watch_gyros_x11,watch_gyros_y11,watch_gyros_z11,watch_accel_x12,watch_accel_y12,watch_accel_z12,watch_gyros_x12,watch_gyros_y12,watch_gyros_z12,watch_accel_x13,watch_accel_y13,watch_accel_z13,watch_gyros_x13,watch_gyros_y13,watch_gyros_z13,watch_accel_x14,watch_accel_y14,watch_accel_z14,watch_gyros_x14,watch_gyros_y14,watch_gyros_z14,watch_accel_x15,watch_accel_y15,watch_accel_z15,watch_gyros_x15,watch_gyros_y15,watch_gyros_z15,watch_accel_x16,watch_accel_y16,watch_accel_z16,watch_gyros_x16,watch_gyros_y16,watch_gyros_z16,watch_accel_x17,watch_accel_y17,watch_accel_z17,watch_gyros_x17,watch_gyros_y17,watch_gyros_z17,watch_accel_x18,watch_accel_y18,watch_accel_z18,watch_gyros_x18,watch_gyros_y18,watch_gyros_z18,watch_accel_x19,watch_accel_y19,watch_accel_z19,watch_gyros_x19,watch_gyros_y19,watch_gyros_z19,watch_accel_x20,watch_accel_y20,watch_accel_z20,watch_gyros_x20,watch_gyros_y20,watch_gyros_z20,watch_accel_x21,watch_accel_y21,watch_accel_z21,watch_gyros_x21,watch_gyros_y21,watch_gyros_z21,watch_accel_x22,watch_accel_y22,watch_accel_z22,watch_gyros_x22,watch_gyros_y22,watch_gyros_z22,watch_accel_x23,watch_accel_y23,watch_accel_z23,watch_gyros_x23,watch_gyros_y23,watch_gyros_z23,watch_accel_x24,watch_accel_y24,watch_accel_z24,watch_gyros_x24,watch_gyros_y24,watch_gyros_z24,watch_accel_x25,watch_accel_y25,watch_accel_z25,watch_gyros_x25,watch_gyros_y25,watch_gyros_z25,watch_accel_x26,watch_accel_y26,watch_accel_z26,watch_gyros_x26,watch_gyros_y26,watch_gyros_z26,watch_accel_x27,watch_accel_y27,watch_accel_z27,watch_gyros_x27,watch_gyros_y27,watch_gyros_z27,watch_accel_x28,watch_accel_y28,watch_accel_z28,watch_gyros_x28,watch_gyros_y28,watch_gyros_z28,watch_accel_x29,watch_accel_y29,watch_accel_z29,watch_gyros_x29,watch_gyros_y29,watch_gyros_z29,watch_accel_x30,watch_accel_y30,watch_accel_z30,watch_gyros_x30,watch_gyros_y30,watch_gyros_z30,watch_accel_x31,watch_accel_y31,watch_accel_z31,watch_gyros_x31,watch_gyros_y31,watch_gyros_z31,watch_accel_x32,watch_accel_y32,watch_accel_z32,watch_gyros_x32,watch_gyros_y32,watch_gyros_z32,watch_accel_x33,watch_accel_y33,watch_accel_z33,watch_gyros_x33,watch_gyros_y33,watch_gyros_z33,watch_accel_x34,watch_accel_y34,watch_accel_z34,watch_gyros_x34,watch_gyros_y34,watch_gyros_z34,watch_accel_x35,watch_accel_y35,watch_accel_z35,watch_gyros_x35,watch_gyros_y35,watch_gyros_z35,watch_accel_x36,watch_accel_y36,watch_accel_z36,watch_gyros_x36,watch_gyros_y36,watch_gyros_z36,watch_accel_x37,watch_accel_y37,watch_accel_z37,watch_gyros_x37,watch_gyros_y37,watch_gyros_z37,watch_accel_x38,watch_accel_y38,watch_accel_z38,watch_gyros_x38,watch_gyros_y38,watch_gyros_z38,watch_accel_x39,watch_accel_y39,watch_accel_z39,watch_gyros_x39,watch_gyros_y39,watch_gyros_z39,watch_accel_x40,watch_accel_y40,watch_accel_z40,watch_gyros_x40,watch_gyros_y40,watch_gyros_z40,watch_accel_x41,watch_accel_y41,watch_accel_z41,watch_gyros_x41,watch_gyros_y41,watch_gyros_z41,watch_accel_x42,watch_accel_y42,watch_accel_z42,watch_gyros_x42,watch_gyros_y42,watch_gyros_z42,watch_accel_x43,watch_accel_y43,watch_accel_z43,watch_gyros_x43,watch_gyros_y43,watch_gyros_z43,watch_accel_x44,watch_accel_y44,watch_accel_z44,watch_gyros_x44,watch_gyros_y44,watch_gyros_z44,watch_accel_x45,watch_accel_y45,watch_accel_z45,watch_gyros_x45,watch_gyros_y45,watch_gyros_z45,watch_accel_x46,watch_accel_y46,watch_accel_z46,watch_gyros_x46,watch_gyros_y46,watch_gyros_z46,watch_accel_x47,watch_accel_y47,watch_accel_z47,watch_gyros_x47,watch_gyros_y47,watch_gyros_z47,watch_accel_x48,watch_accel_y48,watch_accel_z48,watch_gyros_x48,watch_gyros_y48,watch_gyros_z48,watch_accel_x49,watch_accel_y49,watch_accel_z49,watch_gyros_x49,watch_gyros_y49,watch_gyros_z49,watch_accel_x50,watch_accel_y50,watch_accel_z50,watch_gyros_x50,watch_gyros_y50,watch_gyros_z50
shake,10202,202,202_10202_260412121046608,-4.5609540939331055,-7.690176010131836,-4.101267337799072,-0.24678955972194672,-0.024434609338641167,0.16493362188339233,-4.127603530883789,-8.813055992126465,-3.248931646347046,-0.5693264007568359,0.18081611394882202,0.4300491213798523,-4.089296340942383,-9.155426979064941,-3.1675288677215576,-0.6352998614311218,0.4434881806373596,0.6707300543785095,-3.8379054069519043,-9.162610054016113,-3.773261785507202,-0.5241223573684692,0.6902777552604675,0.9321803450584412,-3.19865345954895,-9.279925346374512,-3.6942532062530518,-0.14905111491680145,1.0225883722305298,1.3720033168792725,-3.1004912853240967,-9.583989143371582,-3.708618402481079,0.0757472887635231,1.2852604389190674,1.6859880685806274,-3.332728862762451,-9.332598686218262,-3.706224203109741,0.34086281061172485,1.7238616943359375,2.1710150241851807,-3.624821424484253,-8.647856712341309,-4.23773717880249,0.5448917746543884,1.9901989698410034,2.4239132404327393,-3.2417490482330322,-7.726089000701904,-5.52821159362793,0.7684684991836548,2.1991147994995117,2.64138126373291,-2.832340717315674,-6.596025466918945,-6.323086738586426,1.0739010572433472,2.3579399585723877,2.76111102104187,-2.6001031398773193,-5.52821159362793,-6.358999729156494,1.4269812107086182,2.3994786739349365,2.7146852016448975,-2.5522189140319824,-4.613626480102539,-6.593631267547607,1.832595705986023,2.5314254760742188,2.630385637283325,-1.9967641830444336,-3.9384617805480957,-7.570465564727783,1.7446311712265015,2.6645941734313965,2.506990909576416,-2.3726539611816406,-2.8371291160583496,-10.848128318786621,1.7922786474227905,2.6731462478637695,2.3151793479919434,-3.4332852363586426,-1.2617442607879639,-13.019668579101562,2.27852725982666,2.2760839462280273,2.0366246700286865,-3.7158010005950928,-0.40940847992897034,-13.017274856567383,2.4520130157470703,1.8509217500686646,1.6090190410614014,-3.2848446369171143,-0.7637503147125244,-13.132196426391602,2.0427334308624268,1.4391984939575195,1.2388347387313843,-3.7708675861358643,-0.5817909836769104,-14.068328857421875,1.3903292417526245,0.9175195693969727,0.8112290501594543,-4.716577529907227,0.8068459630012512,-14.425065040588379,1.1264355182647705,0.4495968222618103,0.45814892649650574,-5.363011837005615,1.216254472732544,-13.869610786437988,0.1918116807937622,-0.36529740691185,-0.2064724564552307,-5.918466567993164,0.304063618183136,-12.679692268371582,-0.5461135506629944,-0.8136724829673767,-0.5754350423812866,-5.834669589996338,-1.213860273361206,-11.473014831542969,-1.0103710889816284,-1.398881435394287,-1.0885618925094604,-5.319916248321533,-2.2194249629974365,-10.182539939880371,-1.0702359676361084,-1.7104226350784302,-1.3952162265777588,-4.197035789489746,-3.004723072052002,-8.65743350982666,-1.1423180103302002,-1.9755382537841797,-1.645671010017395,-3.600879430770874,-3.3638534545898438,-7.979874134063721,-1.244943380355835,-2.207667112350464,-1.872912883758545,-2.8610711097717285,-3.952826976776123,-7.819462776184082,-1.389107584953308,-2.2773056030273438,-1.976759910583496,-2.4684219360351562,-5.185841083526611,-8.159439086914062,-1.4868459701538086,-2.2968533039093018,-2.052507162094116,-2.2361843585968018,-7.42681360244751,-6.643909931182861,-1.4477506875991821,-2.230879783630371,-2.0610592365264893,-2.427720546722412,-8.832210540771484,-5.4013190269470215,-1.3561208248138428,-2.024407386779785,-1.8093829154968262,-2.894589900970459,-9.133879661560059,-4.441244125366211,-0.656069278717041,-1.588249683380127,-1.4648548364639282,-3.335123062133789,-8.635885238647461,-4.223371982574463,-0.44837507605552673,-1.389107584953308,-1.2767083644866943,-3.5649664402008057,-9.26795482635498,-4.031835556030273,-0.5253441333770752,-1.2608258724212646,-1.1166616678237915,-4.082113742828369,-9.440337181091309,-4.089296340942383,-0.31520646810531616,-0.9957103729248047,-0.8967501521110535,-4.180276393890381,-8.81784439086914,-4.23773717880249,-0.012217304669320583,-0.8344419002532959,-0.7819074988365173,-4.41969633102417,-8.030152320861816,-4.256890773773193,0.12217304855585098,-0.7232644557952881,-0.6194173693656921,-4.716577529907227,-7.3693528175354,-4.094084739685059,0.04398229718208313,-0.5009095072746277,-0.40072759985923767,-5.149928092956543,-6.921637058258057,-4.252102375030518,-0.04642575979232788,-0.3384193480014801,-0.25045475363731384,-5.403713226318359,-6.780379295349121,-4.671087741851807,-0.02076941914856434,-0.14782938361167908,-0.06352998316287994,-5.501875400543213,-6.682217121124268,-4.999093055725098,0.06475171446800232,-0.025656340643763542,0.03420845419168472,-5.3342814445495605,-6.588842868804932,-5.061342239379883,0.11362093687057495,0.04153883829712868,0.09285151958465576,-5.327098846435547,-6.385335922241211,-5.07570743560791,0.06475171446800232,0.14905111491680145,0.1514945775270462,-5.252878665924072,-6.291962146759033,-5.185841083526611,0.04153883829712868,0.20891591906547546,0.18448130786418915,-5.044582843780518,-6.117185115814209,-5.48272180557251,0.05009094998240471,0.23945917189121246,0.19914206862449646,-4.948814868927002,-5.849034786224365,-5.762843608856201,0.051312681287527084,0.26633724570274353,0.22846360504627228,-4.963180065155029,-5.760449409484863,-6.0190229415893555,0.0354301854968071,0.2871066629886627,0.22357667982578278,-5.082890033721924,-5.509057998657227,-6.1770405769348145,-0.015882495790719986,0.3237585723400116,0.22602014243602753,-5.123591423034668,-5.439626216888428,-6.399701118469238,-0.07819075137376785,0.32986724376678467,0.2223549485206604,-5.147533416748047,-5.480327606201172,-6.524199485778809,-0.11850785464048386,0.3139847218990326,0.2223549485206604,-5.286397457122803,-5.674258232116699,-6.710947513580322,-0.06719517707824707,0.27488934993743896,0.1966986060142517,-5.272032260894775,-5.7125654220581055,-6.581660270690918,0.039095375686883926,0.22846360504627228,0.16249015927314758,-5.279214859008789,-5.681440830230713,-6.301538944244385,0.13927727937698364,0.1918116807937622,0.13072516024112701
