label,sub_label,user,file_id,watch_accel_x0,watch_accel_y0,watch_accel_z0,watch_gyros_x0,watch_gyros_y0,watch_gyros_z0,watch_accel_x1,watch_accel_y1,watch_accel_z1,watch_gyros_x1,watch_gyros_y1,watch_gyros_z1,watch_accel_x2,watch_accel_y2,watch_accel_z2,watch_gyros_x2,watch_gyros_y2,watch_gyros_z2,watch_accel_x3,watch_accel_y3,watch_accel_z3,watch_gyros_x3,watch_gyros_y3,watch_gyros_z3,watch_accel_x4,watch_accel_y4,watch_accel_z4,watch_gyros_x4,watch_gyros_y4,watch_gyros_z4,watch_accel_x5,watch_accel_y5,watch_accel_z5,watch_gyros_x5,watch_gyros_y5,watch_gyros_z5,watch_accel_x6,watch_accel_y6,watch_accel_z6,watch_gyros_x6,watch_gyros_y6,watch_gyros_z6,watch_accel_x7,watch_accel_y7,watch_accel_z7,watch_gyros_x7,watch_gyros_y7,watch_gyros_z7,watch_accel_x8,watch_accel_y8,watch_accel_z8,watch_gyros_x8,watch_gyros_y8,watch_gyros_z8,watch_accel_x9,watch_accel_y9,watch_accel_z9,watch_gyros_x9,watch_gyros_y9,watch_gyros_z9,watch_accel_x10,watch_accel_y10,watch_accel_z10,watch_gyros_x10,watch_gyros_y10,watch_gyros_z10,watch_accel_x11,watch_accel_y11,watch_accel_z11,watch_gyros_x11,watch_gyros_y11,watch_gyros_z11,watch_accel_x12,watch_accel_y12,watch_accel_z12,watch_gyros_x12,watch_gyros_y12,watch_gyros_z12,watch_accel_x13,watch_accel_y13,watch_accel_z13,watch_gyros_x13,watch_gyros_y13,watch_gyros_z13,watch_accel_x14,watch_accel_y14,watch_accel_z14,watch_gyros_x14,watch_gyros_y14,watch_gyros_z14,watch_accel_x15,watch_accel_y15,watch_accel_z15,watch_gyros_x15,watch_gyros_y15,watch_gyros_z15,watch_accel_x16,watch_accel_y16,watch_accel_z16,watch_gyros_x16,watch_gyros_y16,watch_gyros_z16,watch_accel_x17,watch_accel_y17,watch_accel_z17,watch_gyros_x17,watch_gyros_y17,watch_gyros_z17,watch_accel_x18,watch_accel_y18,watch_accel_z18,watch_gyros_x18,watch_gyros_y18,watch_gyros_z18,watch_accel_x19,watch_accel_y19,watch_accel_z19,watch_gyros_x19,watch_gyros_y19,watch_gyros_z19,watch_accel_x20,watch_accel_y20,watch_accel_z20,watch_gyros_x20,watch_gyros_y20,watch_gyros_z20,watch_accel_x21,watch_accel_y21,watch_accel_z21,watch_gyros_x21,watch_gyros_y21,watch_gyros_z21,watch_accel_x22,watch_accel_y22,watch_accel_z22,watch_gyros_x22,watch_gyros_y22,watch_gyros_z22,watch_accel_x23,watch_accel_y23,watch_accel_z23,watch_gyros_x23,watch_gyros_y23,watch_gyros_z23,watch_accel_x24,watch_accel_y24,watch_accel_z24,watch_gyros_x24,watch_gyros_y24,watch_gyros_z24,watch_accel_x25,watch_accel_y25,watch_accel_z25,watch_gyros_x25,watch_gyros_y25,watch_gyros_z25,watch_accel_x26,watch_accel_y26,watch_accel_z26,watch_gyros_x26,watch_gyros_y26,watch_gyros_z26,watch_accel_x27,watch_accel_y27,watch_accel_z27,watch_gyros_x27,watch_gyros_y27,watch_gyros_z27,watch_accel_x28,watch_accel_y28,watch_accel_z28,watch_gyros_x28,watch_gyros_y28,watch_gyros_z28,watch_accel_x29,watch_accel_y29,watch_accel_z29,watch_gyros_x29,watch_gyros_y29,watch_gyros_z29,watch_accel_x30,watch_accel_y30,watch_accel_z30,watch_gyros_x30,watch_gyros_y30,watch_gyros_z30,watch_accel_x31,watch_accel_y31,watch_accel_z31,watch_gyros_x31,watch_gyros_y31,watch_gyros_z31,watch_accel_x32,watch_accel_y32,watch_accel_z32,watch_gyros_x32,watch_gyros_y32,watch_gyros_z32,watch_accel_x33,watch_accel_y33,watch_accel_z33,watch_gyros_x33,watch_gyros_y33,watch_gyros_z33,watch_accel_x34,watch_accel_y34,watch_accel_z34,watch_gyros_x34,watch_gyros_y34,watch_gyros_z34,watch_accel_x35,watch_accel_y35,watch_accel_z35,watch_gyros_x35,watch_gyros_y35,watch_gyros_z35,watch_accel_x36,watch_accel_y36,watch_accel_z36,watch_gyros_x36,watch_gyros_y36,watch_gyros_z36,watch_accel_x37,watch_accel_y37,watch_accel_z37,watch_gyros_x37,watch_gyros_y37,watch_gyros_z37,watch_accel_x38,watch_accel_y38,watch_accel_z38,watch_gyros_x38,watch_gyros_y38,watch_gyros_z38,watch_accel_x39,watch_accel_y39,watch_accel_z39,watch_gyros_x39,watch_gyros_y39,watch_gyros_z39,watch_accel_x40,watch_accel_y40,watch_accel_z40,watch_gyros_x40,watch_gyros_y40,watch_gyros_z40,watch_accel_x41,watch_accel_y41,watch_accel_z41,watch_gyros_x41,watch_gyros_y41,watch_gyros_z41,watch_accel_x42,watch_accel_y42,watch_accel_z42,watch_gyros_x42,watch_gyros_y42,watch_gyros_z42,watch_accel_x43,watch_accel_y43,watch_accel_z43,watch_gyros_x43,watch_gyros_y43,watch_gyros_z43,watch_accel_x44,watch_accel_y44,watch_accel_z44,watch_gyros_x44,watch_gyros_y44,watch_gyros_z44,watch_accel_x45,watch_accel_y45,watch_accel_z45,watch_gyros_x45,watch_gyros_y45,watch_gyros_z45,watch_accel_x46,watch_accel_y46,watch_accel_z46,watch_gyros_x46,watch_gyros_y46,watch_gyros_z46,watch_accel_x47,watch_accel_y47,watch_accel_z47,watch_gyros_x47,watch_gyros_y47,watch_gyros_z47,watch_accel_x48,watch_accel_y48,watch_accel_z48,watch_gyros_x48,watch_gyros_y48,watch_gyros_z48,watch_accel_x49,watch_accel_y49,watch_accel_z49,watch_gyros_x49,watch_gyros_y49,watch_gyros_z49,watch_accel_x50,watch_accel_y50,watch_accel_z50,watch_gyros_x50,watch_gyros_y50,watch_gyros_z50,watch_accel_x51,watch_accel_y51,watch_accel_z51,watch_gyros_x51,watch_gyros_y51,watch_gyros_z51,watch_accel_x52,watch_accel_y52,watch_accel_z52,watch_gyros_x52,watch_gyros_y52,watch_gyros_z52
random,999,203,203_999_260412124045511,3.6343982219696045,-4.9368438720703125,-4.6255974769592285,-0.3274237811565399,0.4508185386657715,-0.5204572081565857,2.851494312286377,-4.527435302734375,-4.304774761199951,-0.4178318381309509,0.4288274049758911,-0.1918116807937622,1.048660397529602,-2.7126305103302,-3.5003228187561035,-0.607200026512146,0.00366519158706069,0.6291912198066711,-0.6416460275650024,-0.6416460275650024,-2.2601263523101807,-0.769690215587616,-0.44104471802711487,1.3683381080627441,-2.123656988143921,0.5554547905921936,-1.745373010635376,-1.292590856552124,-1.3524556159973145,2.459343433380127,-3.6080620288848877,0.24420857429504395,-1.3694833517074585,-1.7458528280258179,-2.4300220012664795,3.230255365371704,-5.367800235748291,-1.7717092037200928,-1.2330138683319092,-1.9120081663131714,-3.949854612350464,4.008497714996338,-6.361393928527832,-4.37420654296875,-0.7134721279144287,-1.6762142181396484,-5.744576930999756,4.277278423309326,-5.746084213256836,-8.269572257995605,-1.455674648284912,-0.8417723178863525,-6.250373363494873,4.089131832122803,-7.714118003845215,-14.997279167175293,-7.225700855255127,0.8112290501594543,-5.798332691192627,2.744006633758545,-11.535264015197754,-19.88384437561035,-9.983820915222168,0.7342600226402283,-5.34873628616333,1.216843605041504,-10.809821128845215,-21.653160095214844,-8.96389102935791,-0.9578366875648499,-3.445280075073242,-1.0751228332519531,-9.521739959716797,-23.973140716552734,-10.654197692871094,-1.4575244188308716,-2.0696115493774414,-2.309070587158203,-6.404489517211914,-20.745758056640625,-16.809690475463867,-1.843591332435608,-1.2180652618408203,-3.304780960083008,-2.1116859912872314,-16.395492553710938,-19.457677841186523,-1.1924089193344116,-0.3237585723400116,-4.118453502655029,0.608127236366272,-12.385205268859863,-19.182344436645508,-0.21991148591041565,0.6401867866516113,-4.340808391571045,1.7381904125213623,-8.192957878112793,-17.80328369140625,0.6866125464439392,1.5931365489959717,-4.404338359832764,1.625662922859192,-3.550601005554199,-16.17522621154785,0.9932668805122375,2.961474657058716,-3.7568211555480957,0.7613561153411865,0.17238251864910126,-14.101847648620605,0.5595525503158569,3.6969563961029053,-2.917492389678955,-0.5937620401382446,2.918531894683838,-12.279860496520996,0.03787364438176155,4.504520416259766,-1.4245377779006958,-2.5306711196899414,6.200982570648193,-9.701305389404297,-0.3579670190811157,4.492302894592285,-0.35552358627319336,-4.886565685272217,7.280767440795898,-7.9415669441223145,-1.026253581047058,3.6529741287231445,0.7562511563301086,-6.754043102264404,5.868188381195068,-3.7014358043670654,-1.1252137422561646,1.7397441864013672,2.3432791233062744,-6.524199485778809,6.335057735443115,1.5179238319396973,-1.1679743528366089,0.6414085030555725,2.9211575984954834,-6.615179061889648,4.261679172515869,7.292738437652588,-1.7067575454711914,-0.35185837745666504,3.213151216506958,-8.180987358093262,-1.0462661981582642,9.040505409240723,-2.4996604919433594,-2.1429152488708496,3.1117475032806396,-9.617507934570312,-9.674968719482422,5.985504150390625,-2.129476308822632,-3.232698917388916,2.637716054916382,-6.780379295349121,-15.591041564941406,-0.21787235140800476,-1.3732250928878784,-3.4526102542877197,1.7507398128509521,-7.309497833251953,-16.687585830688477,-6.380547523498535,-1.5601497888565063,-3.74582576751709,0.96883225440979,-8.358158111572266,-19.74498176574707,-10.888829231262207,-1.0946705341339111,-3.5992181301116943,0.13072516024112701,-5.427655220031738,-21.674707412719727,-15.708357810974121,0.11972958594560623,-2.13314151763916,-0.8307767510414124,-4.182670593261719,-17.721881866455078,-18.655620574951172,0.4508185386657715,-1.3744467496871948,-1.330464482307434,-2.6024973392486572,-14.504074096679688,-17.669208526611328,0.15760323405265808,-0.7831292152404785,-1.6896532773971558,-0.22505496442317963,-11.379640579223633,-15.105018615722656,-0.1918116807937622,0.1563815027475357,-1.987755537033081,1.1635819673538208,-8.33182144165039,-13.194445610046387,-0.16737708449363708,0.7586946487426758,-2.0732767581939697,1.0989385843276978,-6.890512466430664,-11.439496040344238,0.12828169763088226,1.4538593292236328,-2.0891592502593994,0.5530605912208557,-5.872976779937744,-9.454702377319336,0.3237585723400116,1.6139060258865356,-1.9804251194000244,-0.13168109953403473,-4.946420669555664,-7.558494567871094,0.3604104816913605,1.5919147729873657,-1.8753563165664673,-0.4429273009300232,-4.213795185089111,-6.931213855743408,0.23579397797584534,1.4062118530273438,-1.616349458694458,-0.6847416758537292,-4.244919776916504,-7.3454108238220215,0.14049901068210602,1.243721604347229,-1.4819591045379639,-0.667982280254364,-4.304774761199951,-6.998251438140869,0.05375614017248154,0.9773843884468079,-1.2119566202163696,-0.4165911078453064,-4.479551315307617,-5.9304375648498535,0.06963863968849182,0.8124507665634155,-1.0726794004440308,-0.08140286058187485,-4.920084476470947,-5.963956356048584,0.10262536257505417,0.7428121566772461,-0.8869763612747192,0.1412578970193863,-5.118803024291992,-5.899312973022461,-0.042760565876960754,0.7098253965377808,-0.720820963382721,0.23702596127986908,-5.468356609344482,-6.157886981964111,-0.14294247329235077,0.6035348773002625,-0.6291912198066711,0.3687070608139038,-5.9304375648498535,-5.173870086669922,-0.14416420459747314,0.3677408695220947,-0.4715879559516907,0.6105214357376099,-6.531382083892822,-5.48272180557251,-0.07696902006864548,0.28099802136421204,-0.37629300355911255,1.0869675874710083,-6.440402507781982,-4.862623691558838,0.0024434609804302454,0.17104226350784302,-0.22968533635139465,1.3311761617660522,-6.27280855178833,-5.841852188110352,-0.15882496535778046,0.051312681287527084,-0.1514945775270462,1.5394717454910278,-6.428431510925293,-6.327875137329102,-0.25045475363731384,-0.019547687843441963,-0.0806342139840126,1.5682021379470825,-6.576871871948242,-6.375759124755859,-0.10262536257505417,-0.01466076634824276,-0.11362093687057495,1.525106430053711,-7.268796443939209,-6.00226354598999,0.030543262138962746,0.03787364438176155,-0.05497787147760391,1.455674648284912,-7.357381820678711,-5.767632007598877,0.17837265133857727,-0.030543262138962746,0.00733038317412138
