label,sub_label,user,file_id,mobile_accel_x0,mobile_accel_y0,mobile_accel_z0,mobile_gyros_x0,mobile_gyros_y0,mobile_gyros_z0,mobile_accel_x1,mobile_accel_y1,mobile_accel_z1,mobile_gyros_x1,mobile_gyros_y1,mobile_gyros_z1,mobile_accel_x2,mobile_accel_y2,mobile_accel_z2,mobile_gyros_x2,mobile_gyros_y2,mobile_gyros_z2,mobile_accel_x3,mobile_accel_y3,mobile_accel_z3,mobile_gyros_x3,mobile_gyros_y3,mobile_gyros_z3,mobile_accel_x4,mobile_accel_y4,mobile_accel_z4,mobile_gyros_x4,mobile_gyros_y4,mobile_gyros_z4,mobile_accel_x5,mobile_accel_y5,mobile_accel_z5,mobile_gyros_x5,mobile_gyros_y5,mobile_gyros_z5,mobile_accel_x6,mobile_accel_y6,mobile_accel_z6,mobile_gyros_x6,mobile_gyros_y6,mobile_gyros_z6,mobile_accel_x7,mobile_accel_y7,mobile_accel_z7,mobile_gyros_x7,mobile_gyros_y7,mobile_gyros_z7,mobile_accel_x8,mobile_accel_y8,mobile_accel_z8,mobile_gyros_x8,mobile_gyros_y8,mobile_gyros_z8,mobile_accel_x9,mobile_accel_y9,mobile_accel_z9,mobile_gyros_x9,mobile_gyros_y9,mobile_gyros_z9,mobile_accel_x10,mobile_accel_y10,mobile_accel_z10,mobile_gyros_x10,mobile_gyros_y10,mobile_gyros_z10,mobile_accel_x11,mobile_accel_y11,mobile_accel_z11,mobile_gyros_x11,mobile_gyros_y11,mobile_gyros_z11,mobile_accel_x12,mobile_accel_y12,mobile_accel_z12,mobile_gyros_x12,mobile_gyros_y12,mobile_gyros_z12,mobile_accel_x13,mobile_accel_y13,mobile_accel_z13,mobile_gyros_x13,mobile_gyros_y13,mobile_gyros_z13,mobile_accel_x14,mobile_accel_y14,mobile_accel_z14,mobile_gyros_x14,mobile_gyros_y14,mobile_gyros_z14,mobile_accel_x15,mobile_accel_y15,mobile_accel_z15,mobile_gyros_x15,mobile_gyros_y15,mobile_gyros_z15,mobile_accel_x16,mobile_accel_y16,mobile_accel_z16,mobile_gyros_x16,mobile_gyros_y16,mobile_gyros_z16,mobile_accel_x17,mobile_accel_y17,mobile_accel_z17,mobile_gyros_x17,mobile_gyros_y17,mobile_gyros_z17,mobile_accel_x18,mobile_accel_y18,mobile_accel_z18,mobile_gyros_x18,mobile_gyros_y18,mobile_gyros_z18,mobile_accel_x19,mobile_accel_y19,mobile_accel_z19,mobile_gyros_x19,mobile_gyros_y19,mobile_gyros_z19,mobile_accel_x20,mobile_accel_y20,mobile_accel_z20,mobile_gyros_x20,mobile_gyros_y20,mobile_gyros_z20,mobile_accel_x21,mobile_accel_y21,mobile_accel_z21,mobile_gyros_x21,mobile_gyros_y21,mobile_gyros_z21,mobile_accel_x22,mobile_accel_y22,mobile_accel_z22,mobile_gyros_x22,mobile_gyros_y22,mobile_gyros_z22,mobile_accel_x23,mobile_accel_y23,mobile_accel_z23,mobile_gyros_x23,mobile_gyros_y23,mobile_gyros_z23,mobile_accel_x24,mobile_accel_y24,mobile_accel_z24,mobile_gyros_x24,mobile_gyros_y24,mobile_gyros_z24,mobile_accel_x25,mobile_accel_y25,mobile_accel_z25,mobile_gyros_x25,mobile_gyros_y25,mobile_gyros_z25,mobile_accel_x26,mobile_accel_y26,mobile_accel_z26,mobile_gyros_x26,mobile_gyros_y26,mobile_gyros_z26,mobile_accel_x27,mobile_accel_y27,mobile_accel_z27,mobile_gyros_x27,mobile_gyros_y27,mobile_gyros_z27,mobile_accel_x28,mobile_accel_y28,mobile_accel_z28,mobile_gyros_x28,mobile_gyros_y28,mobile_gyros_z28,mobile_accel_x29,mobile_accel_y29,mobile_accel_z29,mobile_gyros_x29,mobile_gyros_y29,mobile_gyros_z29,mobile_accel_x30,mobile_accel_y30,mobile_accel_z30,mobile_gyros_x30,mobile_gyros_y30,mobile_gyros_z30,mobile_accel_x31,mobile_accel_y31,mobile_accel_z31,mobile_gyros_x31,mobile_gyros_y31,mobile_gyros_z31,mobile_accel_x32,mobile_accel_y32,mobile_accel_z32,mobile_gyros_x32,mobile_gyros_y32,mobile_gyros_z32,mobile_accel_x33,mobile_accel_y33,mobile_accel_z33,mobile_gyros_x33,mobile_gyros_y33,mobile_gyros_z33,mobile_accel_x34,mobile_accel_y34,mobile_accel_z34,mobile_gyros_x34,mobile_gyros_y34,mobile_gyros_z34,mobile_accel_x35,mobile_accel_y35,mobile_accel_z35,mobile_gyros_x35,mobile_gyros_y35,mobile_gyros_z35,mobile_accel_x36,mobile_accel_y36,mobile_accel_z36,mobile_gyros_x36,mobile_gyros_y36,mobile_gyros_z36,mobile_accel_x37,mobile_accel_y37,mobile_accel_z37,mobile_gyros_x37,mobile_gyros_y37,mobile_gyros_z37,mobile_accel_x38,mobile_accel_y38,mobile_accel_z38,mobile_gyros_x38,mobile_gyros_y38,mobile_gyros_z38,mobile_accel_x39,mobile_accel_y39,mobile_accel_z39,mobile_gyros_x39,mobile_gyros_y39,mobile_gyros_z39,mobile_accel_x40,mobile_accel_y40,mobile_accel_z40,mobile_gyros_x40,mobile_gyros_y40,mobile_gyros_z40,mobile_accel_x41,mobile_accel_y41,mobile_accel_z41,mobile_gyros_x41,mobile_gyros_y41,mobile_gyros_z41,mobile_accel_x42,mobile_accel_y42,mobile_accel_z42,mobile_gyros_x42,mobile_gyros_y42,mobile_gyros_z42,mobile_accel_x43,mobile_accel_y43,mobile_accel_z43,mobile_gyros_x43,mobile_gyros_y43,mobile_gyros_z43,mobile_accel_x44,mobile_accel_y44,mobile_accel_z44,mobile_gyros_x44,mobile_gyros_y44,mobile_gyros_z44,mobile_accel_x45,mobile_accel_y45,mobile_accel_z45,mobile_gyros_x45,mobile_gyros_y45,mobile_gyros_z45,mobile_accel_x46,mobile_accel_y46,mobile_accel_z46,mobile_gyros_x46,mobile_gyros_y46,mobile_gyros_z46,mobile_accel_x47,mobile_accel_y47,mobile_accel_z47,mobile_gyros_x47,mobile_gyros_y47,mobile_gyros_z47,mobile_accel_x48,mobile_accel_y48,mobile_accel_z48,mobile_gyros_x48,mobile_gyros_y48,mobile_gyros_z48,mobile_accel_x49,mobile_accel_y49,mobile_accel_z49,mobile_gyros_x49,mobile_gyros_y49,mobile_gyros_z49
random,999,116,116_999_260413182310255,-20.3695011138916,-17.736797332763672,14.67398452758789,-1.4756965637207031,2.173609495162964,2.5665483474731445,-23.748167037963867,-24.466012954711914,12.0933256149292,0.3344484567642212,1.8832961320877075,6.521897792816162,-19.686948776245117,-31.811979293823242,3.9014973640441895,0.05222893878817558,1.9304853677749634,11.581843376159668,-4.001996040344238,-40.08576202392578,0.9475577473640442,-2.9662065505981445,2.0352487564086914,16.278018951416016,15.853048324584961,-41.17389678955078,4.463810443878174,-2.9747588634490967,-1.6201660633087158,18.465526580810547,39.981075286865234,-20.016559600830078,4.415954113006592,2.0434954166412354,-7.0284576416015625,15.941280364990234,45.7591438293457,8.410173416137695,4.2831525802612305,3.758192777633667,-7.398641586303711,9.972062110900879,44.946781158447266,13.756935119628906,10.213763236999512,0.3283398151397705,-0.2864955961704254,4.935940265655518,32.85525131225586,9.128020286560059,10.082158088684082,-1.1789690256118774,2.852891206741333,0.5728384256362915,19.037296295166016,-0.054436713457107544,7.001399040222168,0.13454297184944153,1.3425281047821045,-1.4341577291488647,11.13021469116211,-4.709074974060059,5.4173502922058105,0.020922118797898293,0.18173226714134216,-1.7699806690216064,8.163114547729492,-4.244867324829102,8.271389961242676,-0.2776380479335785,-0.3455967605113983,-1.5555671453475952,8.538787841796875,-2.1948165893554688,10.421340942382812,-0.17592905461788177,-0.7295252680778503,-1.6099340915679932,10.110274314880371,-0.4707878530025482,11.748759269714355,-0.18677189946174622,-0.676227331161499,-2.0754129886627197,11.510673522949219,-0.05922235921025276,12.27697467803955,-0.057268574833869934,-0.7260127663612366,-2.836703300476074,11.967702865600586,-0.6927221417427063,13.173087120056152,0.13393209874629974,-0.9613484740257263,-3.666563034057617,11.614761352539062,-1.3316057920455933,14.522639274597168,0.3917170464992523,-0.7031053900718689,-4.338972568511963,11.544173240661621,-0.3601198196411133,13.884353637695312,0.5751292109489441,-0.0027488914784044027,-4.933038711547852,11.771491050720215,0.9284151792526245,11.6787691116333,0.5668824911117554,0.7470875978469849,-5.690968990325928,11.766705513000488,2.076970100402832,9.33858871459961,0.5978838801383972,1.1000148057937622,-6.864593029022217,8.522037506103516,-1.1724830865859985,6.666403770446777,0.16661337018013,1.2817469835281372,-7.769894599914551,3.655036687850952,-4.696512699127197,6.215356826782227,-0.3452913165092468,1.5905392169952393,-7.834646224975586,-1.5038890838623047,-6.033502101898193,5.676971912384033,-0.434783011674881,1.5428917407989502,-7.201484680175781,-5.064409255981445,-5.8612189292907715,5.082355499267578,-0.16416990756988525,0.8988875150680542,-6.309164047241211,-7.420741081237793,-5.256433010101318,4.682155609130859,0.25992295145988464,-0.03237583488225937,-5.434100151062012,-9.32602596282959,-4.380660057067871,4.993222713470459,0.6386591196060181,-0.9556979537010193,-4.47412633895874,-9.522237777709961,-3.122035264968872,5.30129861831665,0.7637336850166321,-1.5143338441848755,-3.4747514724731445,-8.706883430480957,-1.698904037475586,5.754140377044678,0.4805978536605835,-1.6543744802474976,-2.6563456058502197,-7.9758758544921875,-0.7914260625839233,6.813562393188477,0.1510363221168518,-1.4944807291030884,-2.0271546840667725,-7.506882667541504,0.037088751792907715,7.5565338134765625,-0.047494735568761826,-1.1698060035705566,-1.4906628131866455,-6.993622303009033,0.666999340057373,8.074580192565918,-0.16523891687393188,-0.9202677607536316,-0.9960150122642517,-6.354140758514404,1.2681959867477417,8.878568649291992,-0.18127411603927612,-0.5862774848937988,-0.5415316224098206,-5.497509956359863,2.1092731952667236,8.651249885559082,-0.16966769099235535,-0.3761399984359741,-0.1285870373249054,-4.791627407073975,3.098107099533081,8.437092781066895,-0.141262486577034,-0.37949973344802856,0.09590577334165573,-3.7298123836517334,3.6993038654327393,8.946166038513184,-0.08628465235233307,-0.45769044756889343,0.17043127119541168,-3.0933215618133545,3.99900484085083,9.363713264465332,-0.007330377586185932,-0.39248061180114746,0.15210533142089844,-2.60339093208313,3.9864425659179688,9.67777156829834,-0.02153298258781433,-0.22006404399871826,0.1444695144891739,-2.740978240966797,3.8081772327423096,9.402596473693848,-0.13545925915241241,0.0021380267571657896,0.2087630331516266,-2.779263496398926,3.589233875274658,9.373284339904785,-0.23945899307727814,0.08613193035125732,0.3744601011276245,-2.0751755237579346,3.8602211475372314,9.920642852783203,-0.22266021370887756,0.15118902921676636,0.4883863925933838,-1.3076776266098022,4.2795634269714355,9.949356079101562,-0.07483093440532684,0.12476912885904312,0.4413498044013977,-1.2382856607437134,4.308875560760498,9.492925643920898,0.12476912885904312,0.009010255336761475,0.31871870160102844,-1.6528422832489014,4.001996040344238,8.812167167663574,0.18982623517513275,-0.10537417232990265,0.31902414560317993,-1.4787644147872925,4.033102512359619,8.748159408569336,0.11804962158203125,-0.14721840620040894,0.39248061180114746,-0.97926265001297,4.190430641174316,9.057432174682617,0.03252854943275452,-0.04214967042207718,0.3894262909889221,-0.8410771489143372,4.187439441680908,9.022137641906738,-0.017562363296747208,0.08292489498853683,0.33490660786628723,-1.0157532691955566,4.184448719024658,8.601598739624023,-0.13393209874629974,0.19074252247810364,0.2816086709499359,-1.357926845550537,3.8697924613952637,8.557929992675781,-0.23197589814662933,0.11591159552335739,0.28557929396629333,-1.4231312274932861,3.7184464931488037,9.201001167297363,-0.20967933535575867,0.02672533318400383,0.3387245237827301,-1.3381860256195068,3.5617165565490723,9.704092025756836,-0.05787943676114082,0.007177661173045635,0.3634645342826843
