label,sub_label,user,file_id,watch_accel_x0,watch_accel_y0,watch_accel_z0,watch_gyros_x0,watch_gyros_y0,watch_gyros_z0,watch_accel_x1,watch_accel_y1,watch_accel_z1,watch_gyros_x1,watch_gyros_y1,watch_gyros_z1,watch_accel_x2,watch_accel_y2,watch_accel_z2,watch_gyros_x2,watch_gyros_y2,watch_gyros_z2,watch_accel_x3,watch_accel_y3,watch_accel_z3,watch_gyros_x3,watch_gyros_y3,watch_gyros_z3,watch_accel_x4,watch_accel_y4,watch_accel_z4,watch_gyros_x4,watch_gyros_y4,watch_gyros_z4,watch_accel_x5,watch_accel_y5,watch_accel_z5,watch_gyros_x5,watch_gyros_y5,watch_gyros_z5,watch_accel_x6,watch_accel_y6,watch_accel_z6,watch_gyros_x6,watch_gyros_y6,watch_gyros_z6,watch_accel_x7,watch_accel_y7,watch_accel_z7,watch_gyros_x7,watch_gyros_y7,watch_gyros_z7,watch_accel_x8,watch_accel_y8,watch_accel_z8,watch_gyros_x8,watch_gyros_y8,watch_gyros_z8,watch_accel_x9,watch_accel_y9,watch_accel_z9,watch_gyros_x9,watch_gyros_y9,watch_gyros_z9,watch_accel_x10,watch_accel_y10,watch_accel_z10,watch_gyros_x10,watch_gyros_y10,watch_gyros_z10,watch_accel_x11,watch_accel_y11,watch_accel_z11,watch_gyros_x11,watch_gyros_y11,watch_gyros_z11,watch_accel_x12,watch_accel_y12,watch_accel_z12,watch_gyros_x12,watch_gyros_y12,watch_gyros_z12,watch_accel_x13,watch_accel_y13,watch_accel_z13,watch_gyros_x13,watch_gyros_y13,watch_gyros_z13,watch_accel_x14,watch_accel_y14,watch_accel_z14,watch_gyros_x14,watch_gyros_y14,watch_gyros_z14,watch_accel_x15,watch_accel_y15,watch_accel_z15,watch_gyros_x15,watch_gyros_y15,watch_gyros_z15,watch_accel_x16,watch_accel_y16,watch_accel_z16,watch_gyros_x16,watch_gyros_y16,watch_gyros_z16,watch_accel_x17,watch_accel_y17,watch_accel_z17,watch_gyros_x17,watch_gyros_y17,watch_gyros_z17,watch_accel_x18,watch_accel_y18,watch_accel_z18,watch_gyros_x18,watch_gyros_y18,watch_gyros_z18,watch_accel_x19,watch_accel_y19,watch_accel_z19,watch_gyros_x19,watch_gyros_y19,watch_gyros_z19,watch_accel_x20,watch_accel_y20,watch_accel_z20,watch_gyros_x20,watch_gyros_y20,watch_gyros_z20,watch_accel_x21,watch_accel_y21,watch_accel_z21,watch_gyros_x21,watch_gyros_y21,watch_gyros_z21,watch_accel_x22,watch_accel_y22,watch_accel_z22,watch_gyros_x22,watch_gyros_y22,watch_gyros_z22,watch_accel_x23,watch_accel_y23,watch_accel_z23,watch_gyros_x23,watch_gyros_y23,watch_gyros_z23,watch_accel_x24,watch_accel_y24,watch_accel_z24,watch_gyros_x24,watch_gyros_y24,watch_gyros_z24,watch_accel_x25,watch_accel_y25,watch_accel_z25,watch_gyros_x25,watch_gyros_y25,watch_gyros_z25,watch_accel_x26,watch_accel_y26,watch_accel_z26,watch_gyros_x26,watch_gyros_y26,watch_gyros_z26,watch_accel_x27,watch_accel_y27,watch_accel_z27,watch_gyros_x27,watch_gyros_y27,watch_gyros_z27,watch_accel_x28,watch_accel_y28,watch_accel_z28,watch_gyros_x28,watch_gyros_y28,watch_gyros_z28,watch_accel_x29,watch_accel_y29,watch_accel_z29,watch_gyros_x29,watch_gyros_y29,watch_gyros_z29,watch_accel_x30,watch_accel_y30,watch_accel_z30,watch_gyros_x30,watch_gyros_y30,watch_gyros_z30,watch_accel_x31,watch_accel_y31,watch_accel_z31,watch_gyros_x31,watch_gyros_y31,watch_gyros_z31,watch_accel_x32,watch_accel_y32,watch_accel_z32,watch_gyros_x32,watch_gyros_y32,watch_gyros_z32,watch_accel_x33,watch_accel_y33,watch_accel_z33,watch_gyros_x33,watch_gyros_y33,watch_gyros_z33,watch_accel_x34,watch_accel_y34,watch_accel_z34,watch_gyros_x34,watch_gyros_y34,watch_gyros_z34,watch_accel_x35,watch_accel_y35,watch_accel_z35,watch_gyros_x35,watch_gyros_y35,watch_gyros_z35,watch_accel_x36,watch_accel_y36,watch_accel_z36,watch_gyros_x36,watch_gyros_y36,watch_gyros_z36,watch_accel_x37,watch_accel_y37,watch_accel_z37,watch_gyros_x37,watch_gyros_y37,watch_gyros_z37,watch_accel_x38,watch_accel_y38,watch_accel_z38,watch_gyros_x38,watch_gyros_y38,watch_gyros_z38,watch_accel_x39,watch_accel_y39,watch_accel_z39,watch_gyros_x39,watch_gyros_y39,watch_gyros_z39,watch_accel_x40,watch_accel_y40,watch_accel_z40,watch_gyros_x40,watch_gyros_y40,watch_gyros_z40,watch_accel_x41,watch_accel_y41,watch_accel_z41,watch_gyros_x41,watch_gyros_y41,watch_gyros_z41,watch_accel_x42,watch_accel_y42,watch_accel_z42,watch_gyros_x42,watch_gyros_y42,watch_gyros_z42,watch_accel_x43,watch_accel_y43,watch_accel_z43,watch_gyros_x43,watch_gyros_y43,watch_gyros_z43,watch_accel_x44,watch_accel_y44,watch_accel_z44,watch_gyros_x44,watch_gyros_y44,watch_gyros_z44,watch_accel_x45,watch_accel_y45,watch_accel_z45,watch_gyros_x45,watch_gyros_y45,watch_gyros_z45,watch_accel_x46,watch_accel_y46,watch_accel_z46,watch_gyros_x46,watch_gyros_y46,watch_gyros_z46,watch_accel_x47,watch_accel_y47,watch_accel_z47,watch_gyros_x47,watch_gyros_y47,watch_gyros_z47,watch_accel_x48,watch_accel_y48,watch_accel_z48,watch_gyros_x48,watch_gyros_y48,watch_gyros_z48,watch_accel_x49,watch_accel_y49,watch_accel_z49,watch_gyros_x49,watch_gyros_y49,watch_gyros_z49,watch_accel_x50,watch_accel_y50,watch_accel_z50,watch_gyros_x50,watch_gyros_y50,watch_gyros_z50,watch_accel_x51,watch_accel_y51,watch_accel_z51,watch_gyros_x51,watch_gyros_y51,watch_gyros_z51
random,999,206,206_999_260413223502122,3.9049429893493652,-13.055582046508789,-1.1276689767837524,0.10262536257505417,1.2669345140457153,-2.652376890182495,2.9951462745666504,-12.406753540039062,-0.21547815203666687,0.6340781450271606,0.7623597979545593,-3.1166343688964844,1.944091796875,-11.05402946472168,0.1364694982767105,0.8979719281196594,0.36529740691185,-3.316998243331909,0.9481038451194763,-9.102754592895508,0.3256114423274994,1.0458012819290161,-0.018325956538319588,-3.4098498821258545,0.44532153010368347,-7.026981830596924,-0.17717093229293823,1.2388347387313843,-0.5314527750015259,-3.330437421798706,0.009576806798577309,-4.9368438720703125,-0.47644615173339844,1.1936306953430176,-0.7929030656814575,-3.1557297706604004,-0.3902548849582672,-3.8522706031799316,-0.8475474119186401,1.1484266519546509,-1.0873401165008545,-2.880840539932251,-0.7637503147125244,-3.224989652633667,-1.2641384601593018,1.1948524713516235,-1.4746286869049072,-2.324953079223633,-0.9696516990661621,-2.451662540435791,-1.5634137392044067,1.2205088138580322,-1.803274154663086,-1.9046778678894043,-0.5339069962501526,-2.03507137298584,-2.3726539611816406,1.3243558406829834,-2.2394320964813232,-1.246165156364441,0.2585737705230713,-1.9177556037902832,-3.4955344200134277,1.4404202699661255,-2.39825701713562,-0.7257078886032104,1.338358759880066,-1.0773907899856567,-4.537012100219727,1.4819591045379639,-2.4996604919433594,-0.19792033731937408,2.2457611560821533,-0.49559974670410156,-6.256049156188965,1.4330898523330688,-2.4972171783447266,0.5852088928222656,2.7724854946136475,-0.8906430602073669,-7.5201873779296875,1.6016886234283447,-2.5021040439605713,1.1606439352035522,3.646369218826294,-1.0079588890075684,-8.111555099487305,1.8106045722961426,-2.4862215518951416,1.9901989698410034,4.611232280731201,-0.7565677165985107,-8.257601737976074,1.8692476749420166,-2.4630086421966553,2.5033257007598877,6.023811340332031,-0.8427590131759644,-8.47786808013916,1.644449234008789,-2.375044107437134,2.9859092235565186,7.304709434509277,-1.0103530883789062,-8.753201484680176,0.7098253965377808,-2.2064452171325684,3.5136969089508057,9.17697525024414,-1.7812861204147339,-9.174580574035645,-0.09651670604944229,-1.9620991945266724,3.712838888168335,10.8720703125,-2.6886885166168213,-9.313444137573242,-0.7550294399261475,-1.566258430480957,3.89121150970459,11.686098098754883,-4.084507942199707,-8.59997272491455,-1.3145819902420044,-0.7843509912490845,4.0744709968566895,10.972626686096191,-5.418078422546387,-9.93593692779541,-1.3952162265777588,-0.12828169763088226,4.087910175323486,9.090784072875977,-7.513004779815674,-11.398794174194336,-1.1911872625350952,0.8613200187683105,3.8838813304901123,7.797914981842041,-9.967061996459961,-11.279084205627441,-1.007927656173706,1.4489723443984985,3.5112533569335938,7.565677165985107,-11.853693008422852,-10.771512985229492,-0.817337691783905,2.004859685897827,3.0164525508880615,6.828263282775879,-13.10107135772705,-10.235212326049805,-0.46181413531303406,2.7488934993743896,2.2125539779663086,5.966350555419922,-13.819332122802734,-10.065223693847656,-0.20402899384498596,3.202155590057373,1.6603317260742188,4.817133903503418,-14.295778274536133,-10.125079154968262,0.14294247329235077,3.777590751647949,0.7415903806686401,3.6080620288848877,-15.13614273071289,-8.884882926940918,0.3982841372489929,3.8655552864074707,0.11972958594560623,3.0789434909820557,-15.62216567993164,-6.801927089691162,0.5229006409645081,3.7727036476135254,-0.6719517707824707,3.0813376903533936,-15.368380546569824,-4.6471452713012695,0.4349360466003418,3.578448534011841,-1.1386528015136719,2.408566951751709,-15.449783325195312,-3.9911341667175293,0.4740314185619354,3.299894094467163,-1.5259413719177246,1.845929503440857,-15.06671142578125,-3.9647979736328125,0.5900958180427551,3.0298917293548584,-1.8668042421340942,1.2737152576446533,-13.876792907714844,-3.950432777404785,0.7904596328735352,2.58762526512146,-2.2296581268310547,0.5363011956214905,-12.679692268371582,-3.1435868740081787,0.8979719281196594,2.241875410079956,-2.409252643585205,-0.15562310814857483,-11.530475616455078,-2.497152328491211,0.9590584635734558,1.6762142181396484,-2.6120598316192627,-0.6200982332229614,-10.63504409790039,-1.742978811264038,0.998153805732727,1.2767083644866943,-2.7146852016448975,-1.1659762859344482,-9.63187313079834,-0.9792284965515137,1.214400053024292,0.6377432942390442,-2.7623326778411865,-1.6543933153152466,-8.774748802185059,-0.7158663272857666,1.5125023126602173,0.19547687470912933,-2.719572067260742,-1.7573440074920654,-7.924807548522949,-0.5099649429321289,1.8839083909988403,-0.21502456068992615,-2.613281488418579,-1.482010841369629,-6.787561893463135,-0.7589619159698486,2.280970811843872,-0.7538077235221863,-2.348165988922119,-1.3910311460494995,-5.355829238891602,-0.4572925269603729,2.41413950920105,-1.2107349634170532,-2.098932981491089,-1.1635819673538208,-3.576937437057495,-0.9169792532920837,2.4776694774627686,-1.6578882932662964,-1.7446311712265015,-0.6631938815116882,-2.2601263523101807,-1.292868971824646,2.3970351219177246,-2.2149972915649414,-1.1435397863388062,0.12689268589019775,-0.8667010068893433,-2.2457611560821533,2.144136905670166,-2.484999895095825,-0.6426302194595337,0.8188169598579407,-0.304063618183136,-2.9951462745666504,1.5320500135421753,-2.7403414249420166,0.06841690838336945,1.7884687185287476,-0.7733271718025208,-4.288015365600586,1.1606439352035522,-2.8099801540374756,0.5510004758834839,3.071760892868042,-0.9169792532920837,-5.822698593139648,0.9199630618095398,-2.8551840782165527,1.0506882667541504,4.838681697845459,-1.3742717504501343,-6.952761650085449,0.4202753007411957,-2.785545587539673,1.6481144428253174,6.576871871948242,-1.9847931861877441,-8.154650688171387,-0.18814650177955627,-2.6597073078155518,2.020742177963257,8.355764389038086,-2.808398485183716,-8.901641845703125,-0.8503243923187256,-2.517986536026001,2.2711970806121826,9.493009567260742,-2.3247697353363037,-6.507440090179443,-1.1508700847625732,-2.2284364700317383,2.7391197681427
