label,sub_label,user,file_id,watch_accel_x0,watch_accel_y0,watch_accel_z0,watch_gyros_x0,watch_gyros_y0,watch_gyros_z0,watch_accel_x1,watch_accel_y1,watch_accel_z1,watch_gyros_x1,watch_gyros_y1,watch_gyros_z1,watch_accel_x2,watch_accel_y2,watch_accel_z2,watch_gyros_x2,watch_gyros_y2,watch_gyros_z2,watch_accel_x3,watch_accel_y3,watch_accel_z3,watch_gyros_x3,watch_gyros_y3,watch_gyros_z3,watch_accel_x4,watch_accel_y4,watch_accel_z4,watch_gyros_x4,watch_gyros_y4,watch_gyros_z4,watch_accel_x5,watch_accel_y5,watch_accel_z5,watch_gyros_x5,watch_gyros_y5,watch_gyros_z5,watch_accel_x6,watch_accel_y6,watch_accel_z6,watch_gyros_x6,watch_gyros_y6,watch_gyros_z6,watch_accel_x7,watch_accel_y7,watch_accel_z7,watch_gyros_x7,watch_gyros_y7,watch_gyros_z7,watch_accel_x8,watch_accel_y8,watch_accel_z8,watch_gyros_x8,watch_gyros_y8,watch_gyros_z8,watch_accel_x9,watch_accel_y9,watch_accel_z9,watch_gyros_x9,watch_gyros_y9,watch_gyros_z9,watch_accel_x10,watch_accel_y10,watch_accel_z10,watch_gyros_x10,watch_gyros_y10,watch_gyros_z10,watch_accel_x11,watch_accel_y11,watch_accel_z11,watch_gyros_x11,watch_gyros_y11,watch_gyros_z11,watch_accel_x12,watch_accel_y12,watch_accel_z12,watch_gyros_x12,watch_gyros_y12,watch_gyros_z12,watch_accel_x13,watch_accel_y13,watch_accel_z13,watch_gyros_x13,watch_gyros_y13,watch_gyros_z13,watch_accel_x14,watch_accel_y14,watch_accel_z14,watch_gyros_x14,watch_gyros_y14,watch_gyros_z14,watch_accel_x15,watch_accel_y15,watch_accel_z15,watch_gyros_x15,watch_gyros_y15,watch_gyros_z15,watch_accel_x16,watch_accel_y16,watch_accel_z16,watch_gyros_x16,watch_gyros_y16,watch_gyros_z16,watch_accel_x17,watch_accel_y17,watch_accel_z17,watch_gyros_x17,watch_gyros_y17,watch_gyros_z17,watch_accel_x18,watch_accel_y18,watch_accel_z18,watch_gyros_x18,watch_gyros_y18,watch_gyros_z18,watch_accel_x19,watch_accel_y19,watch_accel_z19,watch_gyros_x19,watch_gyros_y19,watch_gyros_z19,watch_accel_x20,watch_accel_y20,watch_accel_z20,watch_gyros_x20,watch_gyros_y20,watch_gyros_z20,watch_accel_x21,watch_accel_y21,watch_accel_z21,watch_gyros_x21,watch_gyros_y21,watch_gyros_z21,watch_accel_x22,watch_accel_y22,watch_accel_z22,watch_gyros_x22,watch_gyros_y22,watch_gyros_z22,watch_accel_x23,watch_accel_y23,watch_accel_z23,watch_gyros_x23,watch_gyros_y23,watch_gyros_z23,watch_accel_x24,watch_accel_y24,watch_accel_z24,watch_gyros_x24,watch_gyros_y24,watch_gyros_z24,watch_accel_x25,watch_accel_y25,watch_accel_z25,watch_gyros_x25,watch_gyros_y25,watch_gyros_z25,watch_accel_x26,watch_accel_y26,watch_accel_z26,watch_gyros_x26,watch_gyros_y26,watch_gyros_z26,watch_accel_x27,watch_accel_y27,watch_accel_z27,watch_gyros_x27,watch_gyros_y27,watch_gyros_z27,watch_accel_x28,watch_accel_y28,watch_accel_z28,watch_gyros_x28,watch_gyros_y28,watch_gyros_z28,watch_accel_x29,watch_accel_y29,watch_accel_z29,watch_gyros_x29,watch_gyros_y29,watch_gyros_z29,watch_accel_x30,watch_accel_y30,watch_accel_z30,watch_gyros_x30,watch_gyros_y30,watch_gyros_z30,watch_accel_x31,watch_accel_y31,watch_accel_z31,watch_gyros_x31,watch_gyros_y31,watch_gyros_z31,watch_accel_x32,watch_accel_y32,watch_accel_z32,watch_gyros_x32,watch_gyros_y32,watch_gyros_z32,watch_accel_x33,watch_accel_y33,watch_accel_z33,watch_gyros_x33,watch_gyros_y33,watch_gyros_z33,watch_accel_x34,watch_accel_y34,watch_accel_z34,watch_gyros_x34,watch_gyros_y34,watch_gyros_z34,watch_accel_x35,watch_accel_y35,watch_accel_z35,watch_gyros_x35,watch_gyros_y35,watch_gyros_z35,watch_accel_x36,watch_accel_y36,watch_accel_z36,watch_gyros_x36,watch_gyros_y36,watch_gyros_z36,watch_accel_x37,watch_accel_y37,watch_accel_z37,watch_gyros_x37,watch_gyros_y37,watch_gyros_z37,watch_accel_x38,watch_accel_y38,watch_accel_z38,watch_gyros_x38,watch_gyros_y38,watch_gyros_z38,watch_accel_x39,watch_accel_y39,watch_accel_z39,watch_gyros_x39,watch_gyros_y39,watch_gyros_z39,watch_accel_x40,watch_accel_y40,watch_accel_z40,watch_gyros_x40,watch_gyros_y40,watch_gyros_z40,watch_accel_x41,watch_accel_y41,watch_accel_z41,watch_gyros_x41,watch_gyros_y41,watch_gyros_z41,watch_accel_x42,watch_accel_y42,watch_accel_z42,watch_gyros_x42,watch_gyros_y42,watch_gyros_z42,watch_accel_x43,watch_accel_y43,watch_accel_z43,watch_gyros_x43,watch_gyros_y43,watch_gyros_z43,watch_accel_x44,watch_accel_y44,watch_accel_z44,watch_gyros_x44,watch_gyros_y44,watch_gyros_z44,watch_accel_x45,watch_accel_y45,watch_accel_z45,watch_gyros_x45,watch_gyros_y45,watch_gyros_z45,watch_accel_x46,watch_accel_y46,watch_accel_z46,watch_gyros_x46,watch_gyros_y46,watch_gyros_z46,watch_accel_x47,watch_accel_y47,watch_accel_z47,watch_gyros_x47,watch_gyros_y47,watch_gyros_z47,watch_accel_x48,watch_accel_y48,watch_accel_z48,watch_gyros_x48,watch_gyros_y48,watch_gyros_z48,watch_accel_x49,watch_accel_y49,watch_accel_z49,watch_gyros_x49,watch_gyros_y49,watch_gyros_z49
shake,10201,204,204_10201_260413182930052,-1.2856862545013428,-8.087613105773926,-5.698200225830078,0.051312681287527084,0.03176499158143997,0.00733038317412138,-1.094150185585022,-8.233659744262695,-5.853823184967041,0.09162978827953339,0.025656340643763542,0.010995574295520782,-0.8140285611152649,-8.439560890197754,-7.225700855255127,0.3396410644054413,0.06230825558304787,-0.0024434609804302454,-0.6847416758537292,-8.712499618530273,-9.167398452758789,0.9346238374710083,0.20891591906547546,-0.02932153269648552,-0.7326257228851318,-8.348581314086914,-9.263166427612305,1.9633208513259888,0.32620203495025635,-0.05253441259264946,-0.12210428714752197,-7.515398979187012,-7.010222434997559,3.0469958782196045,0.4141666293144226,-0.19547687470912933,0.7661445140838623,-7.3885064125061035,-2.2385785579681396,2.9663615226745605,0.3628539443016052,-0.2528982162475586,0.5770025849342346,-6.734889507293701,-0.09576806426048279,1.2095131874084473,-0.08552113175392151,-0.5412266254425049,-1.1659762859344482,-7.996633529663086,1.8938134908676147,-1.2290608882904053,-0.35552358627319336,-0.5974262356758118,-2.477998733520508,-10.42195987701416,0.1628057211637497,-2.3799309730529785,-0.5338962078094482,-0.5522221922874451,-3.5266590118408203,-8.676587104797363,0.090979665517807,-2.1734585762023926,-0.6328563690185547,-0.3628539443016052,-3.8570590019226074,-9.38048267364502,-2.118868589401245,-1.930334210395813,-0.5913175344467163,-0.030543262138962746,-3.045424461364746,-11.346121788024902,-2.7269957065582275,-1.2669345140457153,-0.49724429845809937,0.2272418737411499,-0.7134721279144287,-9.710882186889648,-6.121973514556885,-0.7428121566772461,-0.6243042945861816,0.2993239760398865,1.0319008827209473,-7.359776020050049,-11.439496040344238,-0.5766568183898926,-0.5827654600143433,0.3787364661693573,-0.13168109953403473,-6.651092529296875,-14.441824913024902,-0.40194934606552124,0.06719517707824707,0.3995058834552765,-2.406172752380371,-5.367800235748291,-13.417106628417969,0.588874101638794,0.6145304441452026,0.6976081132888794,-3.667917013168335,-4.302380561828613,-10.098742485046387,1.3390166759490967,0.970054030418396,0.8100073337554932,-0.7398083209991455,-5.109226226806641,-4.4723687171936035,0.6255260109901428,0.93095862865448,0.48380526900291443,0.3734954595565796,-7.094019412994385,-3.818751811981201,-0.3689626157283783,0.7721336483955383,0.26022860407829285,-0.3758896589279175,-7.259219646453857,-3.869029998779297,-0.4642575979232788,0.5155702829360962,-0.09407325088977814,0.2585737705230713,-7.283161640167236,-4.048594951629639,-0.49235737323760986,0.2834414839744568,-0.30054569244384766,1.5442601442337036,-7.60637903213501,-2.8874073028564453,-0.07819075137376785,0.0659734457731247,-0.30054569244384766,0.8020575642585754,-8.063671112060547,-0.5386953949928284,0.059864792972803116,-0.37140607833862305,-0.4178318381309509,-0.9792284965515137,-8.827422142028809,-2.4612393379211426,0.21013765037059784,-0.685390830039978,-0.34574973583221436,-1.9345149993896484,-8.552088737487793,-4.730942726135254,0.05742133408784866,-0.9162978529930115,-0.36163222789764404,-2.4013843536376953,-8.9064302444458,-6.653486728668213,-0.33108896017074585,-0.7745771408081055,-0.2687807083129883,-2.4229321479797363,-9.102754592895508,-6.900089263916016,-0.3591887652873993,-0.6157521605491638,-0.2577851414680481,-2.456450939178467,-10.11550235748291,-6.818686485290527,-0.4764748811721802,-0.3494149148464203,-0.1319468915462494,-2.0231003761291504,-9.459490776062012,-6.600813865661621,-0.39095374941825867,-0.20891591906547546,-0.10506882518529892,-1.522712230682373,-8.38449478149414,-6.426037311553955,-0.07208210229873657,-0.0708603709936142,0.019547687843441963,-1.3479355573654175,-8.53532886505127,-6.064512729644775,0.375071257352829,0.1014036312699318,0.16982053220272064,-1.3479355573654175,-8.485051155090332,-5.535394191741943,0.5962044596672058,0.16371189057826996,0.2125810980796814,-1.0199298858642578,-7.592013359069824,-5.020640850067139,0.5314527750015259,0.1368338167667389,0.21013765037059784,-0.8547300100326538,-7.6351094245910645,-5.114014625549316,0.2773328125476837,0.1270599663257599,0.18570303916931152,-0.811634361743927,-7.7428483963012695,-5.633556365966797,0.15027284622192383,0.09896016865968704,0.15760323405265808,-0.9768342971801758,-8.123526573181152,-5.765237808227539,0.004886921960860491,0.07330382615327835,0.08185594528913498,-1.0678139925003052,-8.243236541748047,-5.504269599914551,-0.021991148591041565,0.042760565876960754,0.02321287989616394,-1.0845733880996704,-8.034940719604492,-5.080495834350586,-0.06352998316287994,-0.01466076634824276,-0.04642575979232788,-1.1204863786697388,-8.197746276855469,-5.104437828063965,-0.06963863968849182,-0.042760565876960754,-0.05497787147760391,-1.1994950771331787,-8.061277389526367,-5.499481201171875,-0.039095375686883926,-0.051312681287527084,-0.042760565876960754,-1.3000515699386597,-8.197746276855469,-5.5114521980285645,-0.08307767659425735,-0.028099801391363144,-0.019547687843441963,-1.2090718746185303,-8.214506149291992,-5.3797712326049805,-0.13072516024112701,-0.01710422709584236,0.0024434609804302454,-1.173158884048462,-8.039729118347168,-5.408501625061035,-0.13316862285137177,-0.02076941914856434,0.02321287989616394,-1.173158884048462,-7.975085735321045,-5.585672378540039,-0.030543262138962746,-0.01710422709584236,0.045204028487205505,-1.3311761617660522,-8.396465301513672,-5.458779811859131,-0.05375614017248154,0.0,0.036651913076639175,-1.2880805730819702,-8.315062522888184,-5.341464042663574,-0.09773843735456467,-0.00366519158706069,0.018325956538319588,-1.2617442607879639,-8.166622161865234,-5.398924827575684,-0.1661553531885147,-0.00366519158706069,0.006108652334660292,-1.1827356815338135,-8.269572257995605,-5.542576789855957,-0.09773843735456467,0.004886921960860491,0.013439035043120384,-1.1468225717544556,-8.252813339233398,-5.626373767852783,0.03787364438176155,0.004886921960860491,0.00733038317412138
