label,sub_label,user,file_id,watch_accel_x0,watch_accel_y0,watch_accel_z0,watch_gyros_x0,watch_gyros_y0,watch_gyros_z0,watch_accel_x1,watch_accel_y1,watch_accel_z1,watch_gyros_x1,watch_gyros_y1,watch_gyros_z1,watch_accel_x2,watch_accel_y2,watch_accel_z2,watch_gyros_x2,watch_gyros_y2,watch_gyros_z2,watch_accel_x3,watch_accel_y3,watch_accel_z3,watch_gyros_x3,watch_gyros_y3,watch_gyros_z3,watch_accel_x4,watch_accel_y4,watch_accel_z4,watch_gyros_x4,watch_gyros_y4,watch_gyros_z4,watch_accel_x5,watch_accel_y5,watch_accel_z5,watch_gyros_x5,watch_gyros_y5,watch_gyros_z5,watch_accel_x6,watch_accel_y6,watch_accel_z6,watch_gyros_x6,watch_gyros_y6,watch_gyros_z6,watch_accel_x7,watch_accel_y7,watch_accel_z7,watch_gyros_x7,watch_gyros_y7,watch_gyros_z7,watch_accel_x8,watch_accel_y8,watch_accel_z8,watch_gyros_x8,watch_gyros_y8,watch_gyros_z8,watch_accel_x9,watch_accel_y9,watch_accel_z9,watch_gyros_x9,watch_gyros_y9,watch_gyros_z9,watch_accel_x10,watch_accel_y10,watch_accel_z10,watch_gyros_x10,watch_gyros_y10,watch_gyros_z10,watch_accel_x11,watch_accel_y11,watch_accel_z11,watch_gyros_x11,watch_gyros_y11,watch_gyros_z11,watch_accel_x12,watch_accel_y12,watch_accel_z12,watch_gyros_x12,watch_gyros_y12,watch_gyros_z12,watch_accel_x13,watch_accel_y13,watch_accel_z13,watch_gyros_x13,watch_gyros_y13,watch_gyros_z13,watch_accel_x14,watch_accel_y14,watch_accel_z14,watch_gyros_x14,watch_gyros_y14,watch_gyros_z14,watch_accel_x15,watch_accel_y15,watch_accel_z15,watch_gyros_x15,watch_gyros_y15,watch_gyros_z15,watch_accel_x16,watch_accel_y16,watch_accel_z16,watch_gyros_x16,watch_gyros_y16,watch_gyros_z16,watch_accel_x17,watch_accel_y17,watch_accel_z17,watch_gyros_x17,watch_gyros_y17,watch_gyros_z17,watch_accel_x18,watch_accel_y18,watch_accel_z18,watch_gyros_x18,watch_gyros_y18,watch_gyros_z18,watch_accel_x19,watch_accel_y19,watch_accel_z19,watch_gyros_x19,watch_gyros_y19,watch_gyros_z19,watch_accel_x20,watch_accel_y20,watch_accel_z20,watch_gyros_x20,watch_gyros_y20,watch_gyros_z20,watch_accel_x21,watch_accel_y21,watch_accel_z21,watch_gyros_x21,watch_gyros_y21,watch_gyros_z21,watch_accel_x22,watch_accel_y22,watch_accel_z22,watch_gyros_x22,watch_gyros_y22,watch_gyros_z22,watch_accel_x23,watch_accel_y23,watch_accel_z23,watch_gyros_x23,watch_gyros_y23,watch_gyros_z23,watch_accel_x24,watch_accel_y24,watch_accel_z24,watch_gyros_x24,watch_gyros_y24,watch_gyros_z24,watch_accel_x25,watch_accel_y25,watch_accel_z25,watch_gyros_x25,watch_gyros_y25,watch_gyros_z25,watch_accel_x26,watch_accel_y26,watch_accel_z26,watch_gyros_x26,watch_gyros_y26,watch_gyros_z26,watch_accel_x27,watch_accel_y27,watch_accel_z27,watch_gyros_x27,watch_gyros_y27,watch_gyros_z27,watch_accel_x28,watch_accel_y28,watch_accel_z28,watch_gyros_x28,watch_gyros_y28,watch_gyros_z28,watch_accel_x29,watch_accel_y29,watch_accel_z29,watch_gyros_x29,watch_gyros_y29,watch_gyros_z29,watch_accel_x30,watch_accel_y30,watch_accel_z30,watch_gyros_x30,watch_gyros_y30,watch_gyros_z30,watch_accel_x31,watch_accel_y31,watch_accel_z31,watch_gyros_x31,watch_gyros_y31,watch_gyros_z31,watch_accel_x32,watch_accel_y32,watch_accel_z32,watch_gyros_x32,watch_gyros_y32,watch_gyros_z32,watch_accel_x33,watch_accel_y33,watch_accel_z33,watch_gyros_x33,watch_gyros_y33,watch_gyros_z33,watch_accel_x34,watch_accel_y34,watch_accel_z34,watch_gyros_x34,watch_gyros_y34,watch_gyros_z34,watch_accel_x35,watch_accel_y35,watch_accel_z35,watch_gyros_x35,watch_gyros_y35,watch_gyros_z35,watch_accel_x36,watch_accel_y36,watch_accel_z36,watch_gyros_x36,watch_gyros_y36,watch_gyros_z36,watch_accel_x37,watch_accel_y37,watch_accel_z37,watch_gyros_x37,watch_gyros_y37,watch_gyros_z37,watch_accel_x38,watch_accel_y38,watch_accel_z38,watch_gyros_x38,watch_gyros_y38,watch_gyros_z38,watch_accel_x39,watch_accel_y39,watch_accel_z39,watch_gyros_x39,watch_gyros_y39,watch_gyros_z39,watch_accel_x40,watch_accel_y40,watch_accel_z40,watch_gyros_x40,watch_gyros_y40,watch_gyros_z40,watch_accel_x41,watch_accel_y41,watch_accel_z41,watch_gyros_x41,watch_gyros_y41,watch_gyros_z41,watch_accel_x42,watch_accel_y42,watch_accel_z42,watch_gyros_x42,watch_gyros_y42,watch_gyros_z42,watch_accel_x43,watch_accel_y43,watch_accel_z43,watch_gyros_x43,watch_gyros_y43,watch_gyros_z43,watch_accel_x44,watch_accel_y44,watch_accel_z44,watch_gyros_x44,watch_gyros_y44,watch_gyros_z44,watch_accel_x45,watch_accel_y45,watch_accel_z45,watch_gyros_x45,watch_gyros_y45,watch_gyros_z45,watch_accel_x46,watch_accel_y46,watch_accel_z46,watch_gyros_x46,watch_gyros_y46,watch_gyros_z46,watch_accel_x47,watch_accel_y47,watch_accel_z47,watch_gyros_x47,watch_gyros_y47,watch_gyros_z47,watch_accel_x48,watch_accel_y48,watch_accel_z48,watch_gyros_x48,watch_gyros_y48,watch_gyros_z48
shake,10201,204,204_10201_260413182926608,-0.6560112833976746,-7.110779285430908,-6.682217121124268,1.2510520219802856,-0.2028072625398636,0.16737708449363708,-2.612074136734009,-5.92325496673584,-6.495469093322754,1.2510520219802856,-0.009773843921720982,0.4703662395477295,-2.8850131034851074,-4.759673118591309,-10.046070098876953,1.0995573997497559,0.22602014243602753,0.636521577835083,-2.456450939178467,-5.9304375648498535,-7.960720539093018,0.9847147464752197,0.34208452701568604,0.3139847218990326,-3.3016040325164795,-7.228095054626465,-5.288791656494141,0.5082398653030396,0.6805039048194885,0.10384709388017654,-0.3663128614425659,-6.600813865661621,-5.008669853210449,-0.24556782841682434,0.39706242084503174,0.08674286305904388,0.12689268589019775,-7.29034423828125,-4.077325344085693,-0.5827654600143433,0.3836233615875244,-0.013439035043120384,0.6009446382522583,-8.233659744262695,-2.0805611610412598,-1.7006487846374512,0.059864792972803116,-0.46547931432724,1.53707754611969,-9.442731857299805,-1.4077905416488647,-2.2186625003814697,-0.394618958234787,-0.7525860071182251,0.3711012601852417,-9.883264541625977,-1.4891934394836426,-2.361604928970337,-0.7489207983016968,-1.0616837739944458,-1.699883222579956,-9.38048267364502,-2.7030537128448486,-2.3603832721710205,-1.1044443845748901,-1.3072515726089478,-2.896984100341797,-9.440337181091309,-3.9624037742614746,-1.7812830209732056,-1.1007791757583618,-1.19607412815094,-3.883395195007324,-9.464279174804688,-4.759673118591309,-0.45814892649650574,-0.9517280459403992,-0.685390830039978,-3.3494882583618164,-10.323798179626465,-6.349422931671143,-0.009773843921720982,-0.7232644557952881,-0.42760565876960754,-2.094926595687866,-10.043676376342773,-7.568071365356445,0.6914994716644287,-0.5314527750015259,-0.09896016865968704,-1.216254472732544,-10.417171478271484,-8.611943244934082,1.0971139669418335,-0.08552113175392151,0.3066543638706207,-0.6584054827690125,-8.56645393371582,-8.674192428588867,0.8686503767967224,0.1563815027475357,0.3787364661693573,-0.12449848651885986,-6.150704383850098,-8.736441612243652,0.7819074988365173,0.33108896017074585,0.6243042945861816,-0.5506663918495178,-3.643975019454956,-8.497021675109863,0.6976081132888794,0.5021312236785889,0.940732479095459,-2.8874073028564453,-4.5609540939331055,-8.650250434875488,0.7819074988365173,0.7831292152404785,1.2009611129760742,-2.7557260990142822,-7.620744228363037,-7.223306655883789,0.7635815739631653,0.9456194043159485,0.9285151958465576,-1.2114660739898682,-8.777143478393555,-4.702212333679199,0.6438519954681396,0.8185594081878662,0.6304129362106323,-0.16759411990642548,-7.187393665313721,-2.7102363109588623,0.5070181488990784,0.5937610268592834,0.3017674386501312,-0.5339069962501526,-7.0126166343688965,-2.382230758666992,0.04764748737215996,0.21135938167572021,0.009773843921720982,-0.3519476354122162,-8.015787124633789,-3.9911341667175293,-0.2834414839744568,0.015882495790719986,-0.14905111491680145,-0.5770025849342346,-8.990227699279785,-3.797203779220581,-0.3029891550540924,-0.16859880089759827,-0.20525072515010834,-0.9600749015808105,-9.80904483795166,-4.367023944854736,-0.4703662395477295,-0.26145032048225403,-0.304210901260376,-1.3000515699386597,-8.853757858276367,-5.085284233093262,-0.6059783101081848,-0.3396410644054413,-0.3689626157283783,-1.5849615335464478,-7.95832633972168,-6.174646377563477,-0.39095374941825867,-0.3029891550540924,-0.2834414839744568,-1.45806884765625,-7.496245384216309,-6.818686485290527,-0.1319468915462494,-0.23335053026676178,-0.15515977144241333,-1.7381904125213623,-7.592013359069824,-6.543353080749512,0.08796459436416626,-0.05497787147760391,0.03787364438176155,-1.7334020137786865,-8.1139497756958,-6.124367713928223,0.042760565876960754,0.036651913076639175,0.11239920556545258,-1.4867992401123047,-8.777143478393555,-5.585672378540039,-0.006108652334660292,0.0806342139840126,0.14294247329235077,-1.4101848602294922,-8.698134422302246,-5.382165431976318,0.04642575979232788,0.09285151958465576,0.1160643994808197,-1.5155296325683594,-8.157045364379883,-5.240907669067383,0.19303341209888458,0.08796459436416626,0.09529497474431992,-1.4676456451416016,-7.908048152923584,-5.178658485412598,0.3481931984424591,0.09407325088977814,0.10506882518529892,-1.4269442558288574,-7.967903137207031,-5.1116204261779785,0.23579397797584534,0.09407325088977814,0.10262536257505417,-1.3623007535934448,-8.51138687133789,-5.078101634979248,0.09285151958465576,0.08429940044879913,0.0806342139840126,-1.4389152526855469,-7.943961143493652,-4.886565685272217,0.10995574295520782,0.01466076634824276,0.028099801391363144,-1.3910311460494995,-7.740454196929932,-5.054159641265869,0.05619960278272629,-0.028099801391363144,0.03298672288656235,-1.4317326545715332,-8.118738174438477,-5.4252610206604,-0.0659734457731247,-0.03176499158143997,0.0354301854968071,-1.501164436340332,-8.549694061279297,-5.609614372253418,-0.08796459436416626,-0.028099801391363144,0.02321287989616394,-1.4891934394836426,-8.576030731201172,-5.652710437774658,-0.08185594528913498,-0.01710422709584236,-0.01466076634824276,-1.4173674583435059,-8.497021675109863,-5.415684223175049,-0.04764748737215996,-0.009773843921720982,-0.04153883829712868,-1.278503656387329,-8.307879447937012,-5.322310447692871,0.0,-0.01466076634824276,-0.06352998316287994,-1.357512354850769,-8.279149055480957,-5.341464042663574,0.00855211354792118,-0.01710422709584236,-0.05742133408784866,-1.256955862045288,-8.461109161376953,-5.5329999923706055,-0.08674286305904388,-0.004886921960860491,-0.05864306539297104,-1.2018892765045166,-8.549694061279297,-5.750872611999512,-0.06841690838336945,0.006108652334660292,-0.05864306539297104,-1.2473790645599365,-8.281543731689453,-5.506663799285889,0.07208210229873657,0.030543262138962746,-0.04886921867728233
