label,sub_label,user,file_id,watch_accel_x0,watch_accel_y0,watch_accel_z0,watch_gyros_x0,watch_gyros_y0,watch_gyros_z0,watch_accel_x1,watch_accel_y1,watch_accel_z1,watch_gyros_x1,watch_gyros_y1,watch_gyros_z1,watch_accel_x2,watch_accel_y2,watch_accel_z2,watch_gyros_x2,watch_gyros_y2,watch_gyros_z2,watch_accel_x3,watch_accel_y3,watch_accel_z3,watch_gyros_x3,watch_gyros_y3,watch_gyros_z3,watch_accel_x4,watch_accel_y4,watch_accel_z4,watch_gyros_x4,watch_gyros_y4,watch_gyros_z4,watch_accel_x5,watch_accel_y5,watch_accel_z5,watch_gyros_x5,watch_gyros_y5,watch_gyros_z5,watch_accel_x6,watch_accel_y6,watch_accel_z6,watch_gyros_x6,watch_gyros_y6,watch_gyros_z6,watch_accel_x7,watch_accel_y7,watch_accel_z7,watch_gyros_x7,watch_gyros_y7,watch_gyros_z7,watch_accel_x8,watch_accel_y8,watch_accel_z8,watch_gyros_x8,watch_gyros_y8,watch_gyros_z8,watch_accel_x9,watch_accel_y9,watch_accel_z9,watch_gyros_x9,watch_gyros_y9,watch_gyros_z9,watch_accel_x10,watch_accel_y10,watch_accel_z10,watch_gyros_x10,watch_gyros_y10,watch_gyros_z10,watch_accel_x11,watch_accel_y11,watch_accel_z11,watch_gyros_x11,watch_gyros_y11,watch_gyros_z11,watch_accel_x12,watch_accel_y12,watch_accel_z12,watch_gyros_x12,watch_gyros_y12,watch_gyros_z12,watch_accel_x13,watch_accel_y13,watch_accel_z13,watch_gyros_x13,watch_gyros_y13,watch_gyros_z13,watch_accel_x14,watch_accel_y14,watch_accel_z14,watch_gyros_x14,watch_gyros_y14,watch_gyros_z14,watch_accel_x15,watch_accel_y15,watch_accel_z15,watch_gyros_x15,watch_gyros_y15,watch_gyros_z15,watch_accel_x16,watch_accel_y16,watch_accel_z16,watch_gyros_x16,watch_gyros_y16,watch_gyros_z16,watch_accel_x17,watch_accel_y17,watch_accel_z17,watch_gyros_x17,watch_gyros_y17,watch_gyros_z17,watch_accel_x18,watch_accel_y18,watch_accel_z18,watch_gyros_x18,watch_gyros_y18,watch_gyros_z18,watch_accel_x19,watch_accel_y19,watch_accel_z19,watch_gyros_x19,watch_gyros_y19,watch_gyros_z19,watch_accel_x20,watch_accel_y20,watch_accel_z20,watch_gyros_x20,watch_gyros_y20,watch_gyros_z20,watch_accel_x21,watch_accel_y21,watch_accel_z21,watch_gyros_x21,watch_gyros_y21,watch_gyros_z21,watch_accel_x22,watch_accel_y22,watch_accel_z22,watch_gyros_x22,watch_gyros_y22,watch_gyros_z22,watch_accel_x23,watch_accel_y23,watch_accel_z23,watch_gyros_x23,watch_gyros_y23,watch_gyros_z23,watch_accel_x24,watch_accel_y24,watch_accel_z24,watch_gyros_x24,watch_gyros_y24,watch_gyros_z24,watch_accel_x25,watch_accel_y25,watch_accel_z25,watch_gyros_x25,watch_gyros_y25,watch_gyros_z25,watch_accel_x26,watch_accel_y26,watch_accel_z26,watch_gyros_x26,watch_gyros_y26,watch_gyros_z26,watch_accel_x27,watch_accel_y27,watch_accel_z27,watch_gyros_x27,watch_gyros_y27,watch_gyros_z27,watch_accel_x28,watch_accel_y28,watch_accel_z28,watch_gyros_x28,watch_gyros_y28,watch_gyros_z28,watch_accel_x29,watch_accel_y29,watch_accel_z29,watch_gyros_x29,watch_gyros_y29,watch_gyros_z29,watch_accel_x30,watch_accel_y30,watch_accel_z30,watch_gyros_x30,watch_gyros_y30,watch_gyros_z30,watch_accel_x31,watch_accel_y31,watch_accel_z31,watch_gyros_x31,watch_gyros_y31,watch_gyros_z31,watch_accel_x32,watch_accel_y32,watch_accel_z32,watch_gyros_x32,watch_gyros_y32,watch_gyros_z32,watch_accel_x33,watch_accel_y33,watch_accel_z33,watch_gyros_x33,watch_gyros_y33,watch_gyros_z33,watch_accel_x34,watch_accel_y34,watch_accel_z34,watch_gyros_x34,watch_gyros_y34,watch_gyros_z34,watch_accel_x35,watch_accel_y35,watch_accel_z35,watch_gyros_x35,watch_gyros_y35,watch_gyros_z35,watch_accel_x36,watch_accel_y36,watch_accel_z36,watch_gyros_x36,watch_gyros_y36,watch_gyros_z36,watch_accel_x37,watch_accel_y37,watch_accel_z37,watch_gyros_x37,watch_gyros_y37,watch_gyros_z37,watch_accel_x38,watch_accel_y38,watch_accel_z38,watch_gyros_x38,watch_gyros_y38,watch_gyros_z38,watch_accel_x39,watch_accel_y39,watch_accel_z39,watch_gyros_x39,watch_gyros_y39,watch_gyros_z39,watch_accel_x40,watch_accel_y40,watch_accel_z40,watch_gyros_x40,watch_gyros_y40,watch_gyros_z40,watch_accel_x41,watch_accel_y41,watch_accel_z41,watch_gyros_x41,watch_gyros_y41,watch_gyros_z41,watch_accel_x42,watch_accel_y42,watch_accel_z42,watch_gyros_x42,watch_gyros_y42,watch_gyros_z42,watch_accel_x43,watch_accel_y43,watch_accel_z43,watch_gyros_x43,watch_gyros_y43,watch_gyros_z43,watch_accel_x44,watch_accel_y44,watch_accel_z44,watch_gyros_x44,watch_gyros_y44,watch_gyros_z44,watch_accel_x45,watch_accel_y45,watch_accel_z45,watch_gyros_x45,watch_gyros_y45,watch_gyros_z45,watch_accel_x46,watch_accel_y46,watch_accel_z46,watch_gyros_x46,watch_gyros_y46,watch_gyros_z46,watch_accel_x47,watch_accel_y47,watch_accel_z47,watch_gyros_x47,watch_gyros_y47,watch_gyros_z47
shake,10201,207,207_10201_260413224040011,-2.5977089405059814,-7.187393665313721,-7.666234016418457,3.0714304447174072,-0.12828169763088226,0.07208210229873657,-1.3670891523361206,-10.66137981414795,-7.7763671875,-0.6218608021736145,-0.6572909951210022,-0.4691445231437683,-2.319981336593628,-9.742006301879883,-3.4572272300720215,-4.1832051277160645,-0.34574973583221436,-0.3579670190811157,-7.268796443939209,-3.4404678344726562,3.002328872680664,-7.204544544219971,0.846659243106842,-0.3982841372489929,-7.632715225219727,4.338293552398682,0.9074024558067322,-7.792197227478027,1.431868076324463,-0.9175195693969727,0.7182605266571045,5.363011837005615,-12.02846908569336,-5.374392509460449,1.3170254230499268,-1.9523253440856934,-0.7637503147125244,6.00226354598999,-29.429527282714844,1.8362609148025513,-0.5180137157440186,-1.5454890727996826,-0.9169792532920837,-1.2617442607879639,-12.334927558898926,3.2950072288513184,0.29565876722335815,-1.8582520484924316,-4.110844135284424,-4.728548526763916,-4.359841346740723,1.3084733486175537,1.0787880420684814,-1.361007809638977,-6.933608055114746,-7.359776020050049,-7.694964408874512,-1.0152580738067627,-0.21502456068992615,-0.2015855312347412,-4.225766181945801,-4.383783340454102,-9.409213066101074,-0.4337143301963806,-0.6414085030555725,1.4282029867172241,-3.205836057662964,-4.067748546600342,-8.303091049194336,1.7214182615280151,-0.6829473376274109,1.1252137422561646,-3.936067581176758,-3.6822822093963623,-7.848193168640137,2.726902484893799,-0.25534167885780334,1.0152580738067627,-5.872976779937744,-4.477157115936279,-6.576871871948242,3.4831535816192627,0.05864306539297104,0.8429940342903137,-6.356605529785156,-4.594472885131836,-8.413225173950195,4.035375595092773,0.1258382350206375,0.8576548099517822,-5.8873419761657715,-4.458003520965576,-7.759607791900635,4.4177775382995605,0.14538592100143433,0.7538077235221863,-4.69024133682251,-3.1866824626922607,-6.404489517211914,3.921754837036133,0.14782938361167908,0.35674530267715454,-4.580107688903809,-2.31758713722229,-6.114790916442871,1.7214182615280151,0.36529740691185,-0.17959438264369965,-3.818751811981201,-4.778826713562012,-5.762843608856201,-0.8014551997184753,-0.051312681287527084,-0.7159340381622314,-1.2234370708465576,-9.035717010498047,-8.47786808013916,-5.053077220916748,-0.9382890462875366,-1.1508700847625732,-0.7230489253997803,-8.779537200927734,-4.041412353515625,-6.459289073944092,-0.608421802520752,-0.7159340381622314,0.1604115068912506,-2.58813214302063,-5.781997203826904,-5.674938201904297,-0.02687807008624077,-0.9224064946174622,0.3256114423274994,-1.256955862045288,-15.184026718139648,-0.93095862865448,0.5510004758834839,-1.1484266519546509,-2.188300371170044,0.9768342971801758,-16.22311019897461,0.9272934198379517,0.9089674949645996,-0.9370672702789307,-3.315969467163086,0.30885201692581177,-10.893617630004883,0.9944885969161987,1.510058879852295,-1.0421360731124878,-9.555258750915527,-3.9025487899780273,-3.9480385780334473,-1.0421360731124878,0.7806857824325562,-1.0115928649902344,-6.370970726013184,-5.453991413116455,-9.064447402954102,-2.3408355712890625,-1.0238101482391357,-0.2968805134296417,-3.00711727142334,-6.914454460144043,-7.771578788757324,-0.6768386960029602,-1.3365731239318848,0.455705463886261,-2.647987127304077,-6.828263282775879,-7.790732383728027,-0.27122417092323303,-0.8100073337554932,0.3384193480014801,-3.292027235031128,-5.978321552276611,-8.324639320373535,0.7782423496246338,0.24068090319633484,0.16982053220272064,-4.486733913421631,-4.352658748626709,-7.740454196929932,0.8576548099517822,0.2919935882091522,0.10384709388017654,-4.108449935913086,-2.959233283996582,-7.927201747894287,0.47769662737846375,-0.00366519158706069,-0.0354301854968071,-3.3662476539611816,-2.87064790725708,-8.183381080627441,0.2871066629886627,-0.13805554807186127,-0.11972958594560623,-3.026270866394043,-3.428496837615967,-8.69334602355957,0.18936823308467865,-0.13439035415649414,-0.19058994948863983,-3.2154128551483154,-4.422090530395508,-8.707711219787598,0.2064724564552307,-0.021991148591041565,-0.1820378452539444,-3.5482068061828613,-4.630385875701904,-8.520963668823242,0.2932153046131134,0.08429940044879913,-0.04642575979232788,-3.5673606395721436,-4.189853191375732,-8.47547435760498,0.28588494658470154,0.05253441259264946,0.07819075137376785,-3.4835634231567383,-3.8977603912353516,-8.394071578979492,0.4202753007411957,0.010995574295520782,0.1514945775270462,-3.44765043258667,-3.9049429893493652,-8.305485725402832,0.4789183437824249,0.012217304669320583,0.13072516024112701,-3.5051112174987793,-3.9480385780334473,-8.200140953063965,0.4337143301963806,0.042760565876960754,0.0806342139840126,-3.6607344150543213,-4.065354347229004,-8.166622161865234,0.2981022298336029,0.04398229718208313,0.019547687843441963,-3.7924153804779053,-4.288015365600586,-7.994239330291748,0.09529497474431992,0.019547687843441963,-0.02932153269648552,-3.670311212539673,-4.572925090789795,-8.243236541748047,0.02321287989616394,0.006108652334660292,-0.05375614017248154,-3.529053211212158,-4.395754337310791,-8.463502883911133,0.13561208546161652,-0.006108652334660292,-0.021991148591041565,-3.4189200401306152,-4.3406877517700195,-8.394071578979492,0.3494149148464203,-0.00733038317412138,-0.01466076634824276,-3.5745432376861572,-4.398148536682129,-8.310274124145508,0.4300491213798523,0.012217304669320583,0.013439035043120384,-3.6583402156829834,-4.422090530395508,-8.075642585754395,0.34208452701568604,-0.0012217304902151227,0.02321287989616394,-3.7900211811065674,-4.414907932281494,-8.190564155578613,0.1661553531885147,-0.030543262138962746,0.04398229718208313
