label,sub_label,user,file_id,watch_accel_x0,watch_accel_y0,watch_accel_z0,watch_gyros_x0,watch_gyros_y0,watch_gyros_z0,watch_accel_x1,watch_accel_y1,watch_accel_z1,watch_gyros_x1,watch_gyros_y1,watch_gyros_z1,watch_accel_x2,watch_accel_y2,watch_accel_z2,watch_gyros_x2,watch_gyros_y2,watch_gyros_z2,watch_accel_x3,watch_accel_y3,watch_accel_z3,watch_gyros_x3,watch_gyros_y3,watch_gyros_z3,watch_accel_x4,watch_accel_y4,watch_accel_z4,watch_gyros_x4,watch_gyros_y4,watch_gyros_z4,watch_accel_x5,watch_accel_y5,watch_accel_z5,watch_gyros_x5,watch_gyros_y5,watch_gyros_z5,watch_accel_x6,watch_accel_y6,watch_accel_z6,watch_gyros_x6,watch_gyros_y6,watch_gyros_z6,watch_accel_x7,watch_accel_y7,watch_accel_z7,watch_gyros_x7,watch_gyros_y7,watch_gyros_z7,watch_accel_x8,watch_accel_y8,watch_accel_z8,watch_gyros_x8,watch_gyros_y8,watch_gyros_z8,watch_accel_x9,watch_accel_y9,watch_accel_z9,watch_gyros_x9,watch_gyros_y9,watch_gyros_z9,watch_accel_x10,watch_accel_y10,watch_accel_z10,watch_gyros_x10,watch_gyros_y10,watch_gyros_z10,watch_accel_x11,watch_accel_y11,watch_accel_z11,watch_gyros_x11,watch_gyros_y11,watch_gyros_z11,watch_accel_x12,watch_accel_y12,watch_accel_z12,watch_gyros_x12,watch_gyros_y12,watch_gyros_z12,watch_accel_x13,watch_accel_y13,watch_accel_z13,watch_gyros_x13,watch_gyros_y13,watch_gyros_z13,watch_accel_x14,watch_accel_y14,watch_accel_z14,watch_gyros_x14,watch_gyros_y14,watch_gyros_z14,watch_accel_x15,watch_accel_y15,watch_accel_z15,watch_gyros_x15,watch_gyros_y15,watch_gyros_z15,watch_accel_x16,watch_accel_y16,watch_accel_z16,watch_gyros_x16,watch_gyros_y16,watch_gyros_z16,watch_accel_x17,watch_accel_y17,watch_accel_z17,watch_gyros_x17,watch_gyros_y17,watch_gyros_z17,watch_accel_x18,watch_accel_y18,watch_accel_z18,watch_gyros_x18,watch_gyros_y18,watch_gyros_z18,watch_accel_x19,watch_accel_y19,watch_accel_z19,watch_gyros_x19,watch_gyros_y19,watch_gyros_z19,watch_accel_x20,watch_accel_y20,watch_accel_z20,watch_gyros_x20,watch_gyros_y20,watch_gyros_z20,watch_accel_x21,watch_accel_y21,watch_accel_z21,watch_gyros_x21,watch_gyros_y21,watch_gyros_z21,watch_accel_x22,watch_accel_y22,watch_accel_z22,watch_gyros_x22,watch_gyros_y22,watch_gyros_z22,watch_accel_x23,watch_accel_y23,watch_accel_z23,watch_gyros_x23,watch_gyros_y23,watch_gyros_z23,watch_accel_x24,watch_accel_y24,watch_accel_z24,watch_gyros_x24,watch_gyros_y24,watch_gyros_z24,watch_accel_x25,watch_accel_y25,watch_accel_z25,watch_gyros_x25,watch_gyros_y25,watch_gyros_z25,watch_accel_x26,watch_accel_y26,watch_accel_z26,watch_gyros_x26,watch_gyros_y26,watch_gyros_z26,watch_accel_x27,watch_accel_y27,watch_accel_z27,watch_gyros_x27,watch_gyros_y27,watch_gyros_z27,watch_accel_x28,watch_accel_y28,watch_accel_z28,watch_gyros_x28,watch_gyros_y28,watch_gyros_z28,watch_accel_x29,watch_accel_y29,watch_accel_z29,watch_gyros_x29,watch_gyros_y29,watch_gyros_z29,watch_accel_x30,watch_accel_y30,watch_accel_z30,watch_gyros_x30,watch_gyros_y30,watch_gyros_z30,watch_accel_x31,watch_accel_y31,watch_accel_z31,watch_gyros_x31,watch_gyros_y31,watch_gyros_z31,watch_accel_x32,watch_accel_y32,watch_accel_z32,watch_gyros_x32,watch_gyros_y32,watch_gyros_z32,watch_accel_x33,watch_accel_y33,watch_accel_z33,watch_gyros_x33,watch_gyros_y33,watch_gyros_z33,watch_accel_x34,watch_accel_y34,watch_accel_z34,watch_gyros_x34,watch_gyros_y34,watch_gyros_z34,watch_accel_x35,watch_accel_y35,watch_accel_z35,watch_gyros_x35,watch_gyros_y35,watch_gyros_z35,watch_accel_x36,watch_accel_y36,watch_accel_z36,watch_gyros_x36,watch_gyros_y36,watch_gyros_z36,watch_accel_x37,watch_accel_y37,watch_accel_z37,watch_gyros_x37,watch_gyros_y37,watch_gyros_z37,watch_accel_x38,watch_accel_y38,watch_accel_z38,watch_gyros_x38,watch_gyros_y38,watch_gyros_z38,watch_accel_x39,watch_accel_y39,watch_accel_z39,watch_gyros_x39,watch_gyros_y39,watch_gyros_z39,watch_accel_x40,watch_accel_y40,watch_accel_z40,watch_gyros_x40,watch_gyros_y40,watch_gyros_z40,watch_accel_x41,watch_accel_y41,watch_accel_z41,watch_gyros_x41,watch_gyros_y41,watch_gyros_z41,watch_accel_x42,watch_accel_y42,watch_accel_z42,watch_gyros_x42,watch_gyros_y42,watch_gyros_z42,watch_accel_x43,watch_accel_y43,watch_accel_z43,watch_gyros_x43,watch_gyros_y43,watch_gyros_z43,watch_accel_x44,watch_accel_y44,watch_accel_z44,watch_gyros_x44,watch_gyros_y44,watch_gyros_z44,watch_accel_x45,watch_accel_y45,watch_accel_z45,watch_gyros_x45,watch_gyros_y45,watch_gyros_z45,watch_accel_x46,watch_accel_y46,watch_accel_z46,watch_gyros_x46,watch_gyros_y46,watch_gyros_z46,watch_accel_x47,watch_accel_y47,watch_accel_z47,watch_gyros_x47,watch_gyros_y47,watch_gyros_z47,watch_accel_x48,watch_accel_y48,watch_accel_z48,watch_gyros_x48,watch_gyros_y48,watch_gyros_z48,watch_accel_x49,watch_accel_y49,watch_accel_z49,watch_gyros_x49,watch_gyros_y49,watch_gyros_z49,watch_accel_x50,watch_accel_y50,watch_accel_z50,watch_gyros_x50,watch_gyros_y50,watch_gyros_z50,watch_accel_x51,watch_accel_y51,watch_accel_z51,watch_gyros_x51,watch_gyros_y51,watch_gyros_z51,watch_accel_x52,watch_accel_y52,watch_accel_z52,watch_gyros_x52,watch_gyros_y52,watch_gyros_z52,watch_accel_x53,watch_accel_y53,watch_accel_z53,watch_gyros_x53,watch_gyros_y53,watch_gyros_z53
shake,10201,207,207_10201_260413224038445,-4.07014274597168,-4.752490520477295,-7.196970462799072,-0.5424483418464661,-0.5864306092262268,-0.4190535545349121,-2.913743495941162,-5.372588634490967,-7.06528902053833,-0.5534439086914062,-0.5791002511978149,-0.7806857824325562,-2.2625205516815186,-5.815515995025635,-7.089231014251709,-0.6059783101081848,-0.46181413531303406,-1.1643091440200806,-2.3056161403656006,-6.8809356689453125,-6.074089527130127,-1.842369556427002,-0.5400048494338989,-1.7116444110870361,-2.449268341064453,-7.738059997558594,-3.4763808250427246,-3.433062791824341,-0.4300491213798523,-1.9364428520202637,-3.098097085952759,-8.097189903259277,-1.9393033981323242,-5.213123798370361,0.7660250067710876,-1.9755382537841797,-4.572925090789795,-7.826645374298096,-1.216254472732544,-5.174028396606445,1.5919147729873657,-1.9987510442733765,-7.321468830108643,-3.8331170082092285,-2.013523578643799,-3.4929275512695312,2.1038198471069336,-2.0671679973602295,-3.804386615753174,0.20111294090747833,-9.775525093078613,-0.42149701714515686,0.6768386960029602,-1.9230037927627563,-1.7836803197860718,0.7134721279144287,-17.26219367980957,1.6212363243103027,-0.2577851414680481,-1.4404202699661255,-1.8195933103561401,-3.406949043273926,-16.292543411254883,1.1337659358978271,-0.021991148591041565,-0.797789990901947,-2.959233283996582,-7.589619159698486,-10.764330863952637,0.15515977144241333,-0.37629300355911255,-0.2480112910270691,-6.72531270980835,-8.542511940002441,-7.481880187988281,0.836885392665863,-0.34697145223617554,1.4367550611495972,-5.123591423034668,-4.592078685760498,-7.977479934692383,1.1520918607711792,-0.5949827432632446,1.794722080230713,-3.1962592601776123,-2.2816741466522217,-7.4986395835876465,1.1618657112121582,-0.24068090319633484,1.4831807613372803,-3.8594532012939453,-1.802833914756775,-7.376535415649414,1.8411478996276855,-0.251676470041275,1.1459832191467285,-6.53377628326416,-4.922478675842285,-6.133944988250732,2.5583035945892334,-0.4288274049758911,1.29381263256073,-7.101202011108398,-6.390124320983887,-7.893682956695557,3.608991861343384,-0.2773328125476837,1.3243558406829834,-5.013458251953125,-6.449979305267334,-7.364564418792725,4.013384819030762,-0.09162978827953339,1.0042624473571777,-3.3207578659057617,-4.611232280731201,-6.469132900238037,3.2925636768341064,0.09285151958465576,0.5668829679489136,-2.8586769104003906,-3.914519786834717,-5.959167957305908,1.673770785331726,0.17348572611808777,0.0659734457731247,-2.7557260990142822,-4.199429988861084,-5.60722017288208,-1.216843605041504,-0.394618958234787,-0.6548475623130798,-2.094926595687866,-6.0836663246154785,-5.386953830718994,-2.730567693710327,-0.8723155856132507,-0.9944885969161987,-0.49559974670410156,-8.93037223815918,-4.845864295959473,-4.0549235343933105,-0.9627236127853394,-0.8869763612747192,1.3407529592514038,-11.537657737731934,-3.6750996112823486,-4.354247570037842,0.2993239760398865,-0.5094616413116455,0.5506663918495178,-10.54645824432373,-2.9017724990844727,-4.014606475830078,2.1563544273376465,-0.49357911944389343,-3.5218706130981445,-4.067748546600342,-4.201824188232422,-3.9156463146209717,3.2143728733062744,-1.0836749076843262,-6.0190229415893555,1.4101848602294922,-11.81299114227295,-3.4379496574401855,1.6114624738693237,-1.3671164512634277,-5.904101371765137,6.9455790519714355,-17.714698791503906,0.1661553531885147,-1.0409144163131714,-1.8252654075622559,-2.853888511657715,4.314351558685303,-14.393940925598145,0.38240164518356323,-1.017701506614685,-1.2021827697753906,-2.6216509342193604,-4.632780075073242,-10.24239444732666,-1.281595230102539,-1.1423180103302002,-0.8772025108337402,-5.224148273468018,-13.455413818359375,-3.7181951999664307,-0.47280970215797424,-0.4300491213798523,0.6976081132888794,-4.240131378173828,-9.368511199951172,-8.465897560119629,1.2229522466659546,0.16859880089759827,1.0543533563613892,-3.4763808250427246,-6.1770405769348145,-7.752425193786621,1.186300277709961,0.2993239760398865,0.8136724829673767,-4.041412353515625,-3.0885202884674072,-8.501810073852539,0.5241223573684692,-0.10873401165008545,0.20036379992961884,-4.455609321594238,-2.9544448852539062,-8.281543731689453,0.2871066629886627,-0.4398229718208313,-0.08674286305904388,-3.557783842086792,-4.850652694702148,-8.305485725402832,0.4740314185619354,-0.28955012559890747,-0.09285151958465576,-3.023876667022705,-5.169081687927246,-8.157045364379883,0.7843509912490845,0.06352998316287994,0.02932153269648552,-3.1004912853240967,-4.3622355461120605,-8.391676902770996,0.7098253965377808,0.06963863968849182,0.028099801391363144,-3.3303346633911133,-3.00711727142334,-8.669404029846191,0.5119050741195679,-0.1258382350206375,-0.03420845419168472,-3.1316158771514893,-2.8778305053710938,-8.56884765625,0.27122417092323303,-0.27122417092323303,-0.08796459436416626,-2.873042106628418,-3.821146011352539,-7.663839817047119,0.06352998316287994,-0.2125810980796814,0.03787364438176155,-2.8203697204589844,-4.410119533538818,-7.661445617675781,0.14416420459747314,-0.06719517707824707,0.13316862285137177,-3.00711727142334,-4.742913722991943,-7.996633529663086,0.19425514340400696,0.021991148591041565,0.21868975460529327,-3.3925838470458984,-4.541800498962402,-8.497021675109863,0.1612684279680252,-0.04153883829712868,0.2223549485206604,-3.246537446975708,-4.170699596405029,-8.489839553833008,0.03176499158143997,-0.11972958594560623,0.16737708449363708,-3.134010076522827,-4.036623954772949,-8.061277389526367,-0.08307767659425735,-0.10384709388017654,-0.006108652334660292,-3.0382418632507324,-4.367023944854736,-7.582436561584473,-0.13316862285137177,-0.02932153269648552,-0.04764748737215996,-3.1675288677215576,-5.2480902671813965,-7.704541206359863,-0.10262536257505417,0.04642575979232788,-0.03420845419168472,-3.49314022064209,-5.647922039031982,-7.924807548522949,-0.006108652334660292,0.08307767659425735,0.036651913076639175,-3.6583402156829834,-5.2696380615234375,-7.762001991271973,0.051312681287527084,0.08552113175392151,0.07819075137376785,-3.663128614425659,-4.874594688415527,-7.90086555480957,0.06963863968849182,0.0659734457731247,0.0659734457731247,-3.5721490383148193,-4.683058738708496,-7.970297336578369,0.018325956538319588,0.06475171446800232,0.06719517707824707,-3.529053211212158,-4.800374507904053,-8.039729118347168,-0.036651913076639175,0.05253441259264946,0.06719517707824707
