label,sub_label,user,file_id,watch_accel_x0,watch_accel_y0,watch_accel_z0,watch_gyros_x0,watch_gyros_y0,watch_gyros_z0,watch_accel_x1,watch_accel_y1,watch_accel_z1,watch_gyros_x1,watch_gyros_y1,watch_gyros_z1,watch_accel_x2,watch_accel_y2,watch_accel_z2,watch_gyros_x2,watch_gyros_y2,watch_gyros_z2,watch_accel_x3,watch_accel_y3,watch_accel_z3,watch_gyros_x3,watch_gyros_y3,watch_gyros_z3,watch_accel_x4,watch_accel_y4,watch_accel_z4,watch_gyros_x4,watch_gyros_y4,watch_gyros_z4,watch_accel_x5,watch_accel_y5,watch_accel_z5,watch_gyros_x5,watch_gyros_y5,watch_gyros_z5,watch_accel_x6,watch_accel_y6,watch_accel_z6,watch_gyros_x6,watch_gyros_y6,watch_gyros_z6,watch_accel_x7,watch_accel_y7,watch_accel_z7,watch_gyros_x7,watch_gyros_y7,watch_gyros_z7,watch_accel_x8,watch_accel_y8,watch_accel_z8,watch_gyros_x8,watch_gyros_y8,watch_gyros_z8,watch_accel_x9,watch_accel_y9,watch_accel_z9,watch_gyros_x9,watch_gyros_y9,watch_gyros_z9,watch_accel_x10,watch_accel_y10,watch_accel_z10,watch_gyros_x10,watch_gyros_y10,watch_gyros_z10,watch_accel_x11,watch_accel_y11,watch_accel_z11,watch_gyros_x11,watch_gyros_y11,watch_gyros_z11,watch_accel_x12,watch_accel_y12,watch_accel_z12,watch_gyros_x12,watch_gyros_y12,watch_gyros_z12,watch_accel_x13,watch_accel_y13,watch_accel_z13,watch_gyros_x13,watch_gyros_y13,watch_gyros_z13,watch_accel_x14,watch_accel_y14,watch_accel_z14,watch_gyros_x14,watch_gyros_y14,watch_gyros_z14,watch_accel_x15,watch_accel_y15,watch_accel_z15,watch_gyros_x15,watch_gyros_y15,watch_gyros_z15,watch_accel_x16,watch_accel_y16,watch_accel_z16,watch_gyros_x16,watch_gyros_y16,watch_gyros_z16,watch_accel_x17,watch_accel_y17,watch_accel_z17,watch_gyros_x17,watch_gyros_y17,watch_gyros_z17,watch_accel_x18,watch_accel_y18,watch_accel_z18,watch_gyros_x18,watch_gyros_y18,watch_gyros_z18,watch_accel_x19,watch_accel_y19,watch_accel_z19,watch_gyros_x19,watch_gyros_y19,watch_gyros_z19,watch_accel_x20,watch_accel_y20,watch_accel_z20,watch_gyros_x20,watch_gyros_y20,watch_gyros_z20,watch_accel_x21,watch_accel_y21,watch_accel_z21,watch_gyros_x21,watch_gyros_y21,watch_gyros_z21,watch_accel_x22,watch_accel_y22,watch_accel_z22,watch_gyros_x22,watch_gyros_y22,watch_gyros_z22,watch_accel_x23,watch_accel_y23,watch_accel_z23,watch_gyros_x23,watch_gyros_y23,watch_gyros_z23,watch_accel_x24,watch_accel_y24,watch_accel_z24,watch_gyros_x24,watch_gyros_y24,watch_gyros_z24,watch_accel_x25,watch_accel_y25,watch_accel_z25,watch_gyros_x25,watch_gyros_y25,watch_gyros_z25,watch_accel_x26,watch_accel_y26,watch_accel_z26,watch_gyros_x26,watch_gyros_y26,watch_gyros_z26,watch_accel_x27,watch_accel_y27,watch_accel_z27,watch_gyros_x27,watch_gyros_y27,watch_gyros_z27,watch_accel_x28,watch_accel_y28,watch_accel_z28,watch_gyros_x28,watch_gyros_y28,watch_gyros_z28,watch_accel_x29,watch_accel_y29,watch_accel_z29,watch_gyros_x29,watch_gyros_y29,watch_gyros_z29,watch_accel_x30,watch_accel_y30,watch_accel_z30,watch_gyros_x30,watch_gyros_y30,watch_gyros_z30,watch_accel_x31,watch_accel_y31,watch_accel_z31,watch_gyros_x31,watch_gyros_y31,watch_gyros_z31,watch_accel_x32,watch_accel_y32,watch_accel_z32,watch_gyros_x32,watch_gyros_y32,watch_gyros_z32,watch_accel_x33,watch_accel_y33,watch_accel_z33,watch_gyros_x33,watch_gyros_y33,watch_gyros_z33,watch_accel_x34,watch_accel_y34,watch_accel_z34,watch_gyros_x34,watch_gyros_y34,watch_gyros_z34,watch_accel_x35,watch_accel_y35,watch_accel_z35,watch_gyros_x35,watch_gyros_y35,watch_gyros_z35,watch_accel_x36,watch_accel_y36,watch_accel_z36,watch_gyros_x36,watch_gyros_y36,watch_gyros_z36,watch_accel_x37,watch_accel_y37,watch_accel_z37,watch_gyros_x37,watch_gyros_y37,watch_gyros_z37,watch_accel_x38,watch_accel_y38,watch_accel_z38,watch_gyros_x38,watch_gyros_y38,watch_gyros_z38,watch_accel_x39,watch_accel_y39,watch_accel_z39,watch_gyros_x39,watch_gyros_y39,watch_gyros_z39,watch_accel_x40,watch_accel_y40,watch_accel_z40,watch_gyros_x40,watch_gyros_y40,watch_gyros_z40,watch_accel_x41,watch_accel_y41,watch_accel_z41,watch_gyros_x41,watch_gyros_y41,watch_gyros_z41,watch_accel_x42,watch_accel_y42,watch_accel_z42,watch_gyros_x42,watch_gyros_y42,watch_gyros_z42,watch_accel_x43,watch_accel_y43,watch_accel_z43,watch_gyros_x43,watch_gyros_y43,watch_gyros_z43,watch_accel_x44,watch_accel_y44,watch_accel_z44,watch_gyros_x44,watch_gyros_y44,watch_gyros_z44,watch_accel_x45,watch_accel_y45,watch_accel_z45,watch_gyros_x45,watch_gyros_y45,watch_gyros_z45,watch_accel_x46,watch_accel_y46,watch_accel_z46,watch_gyros_x46,watch_gyros_y46,watch_gyros_z46,watch_accel_x47,watch_accel_y47,watch_accel_z47,watch_gyros_x47,watch_gyros_y47,watch_gyros_z47,watch_accel_x48,watch_accel_y48,watch_accel_z48,watch_gyros_x48,watch_gyros_y48,watch_gyros_z48
random,999,204,204_999_260413183758874,3.976768970489502,-5.094861030578613,-7.620744228363037,0.08796459436416626,0.0403171069920063,-0.00733038317412138,4.062960147857666,-5.750872611999512,-8.312667846679688,0.3982841372489929,0.0659734457731247,0.01710422709584236,4.034229755401611,-6.567295074462891,-9.691728591918945,1.2889256477355957,0.12339477986097336,0.03787364438176155,3.9432501792907715,-7.879317760467529,-14.118607521057129,4.918686866760254,0.3384193480014801,0.06841690838336945,4.323928356170654,-9.713275909423828,-15.37077522277832,9.779953002929688,0.4948008358478546,0.24923302233219147,4.436455726623535,-4.469974517822266,-14.030021667480469,15.704123497009277,0.675616979598999,0.16371189057826996,5.762843608856201,5.600037574768066,-8.054094314575195,20.647245407104492,1.4880677461624146,0.3225368559360504,4.5394062995910645,11.27190113067627,8.973467826843262,18.56419563293457,1.1520918607711792,1.0458012819290161,1.5729905366897583,2.6623523235321045,19.335573196411133,13.913066864013672,0.21380282938480377,0.7000515460968018,1.7118542194366455,-7.5632829666137695,22.340295791625977,2.185675859451294,-0.29565876722335815,0.2076941877603531,1.8315643072128296,-11.66455078125,13.03403377532959,-7.2314229011535645,-1.1239920854568481,-0.49357911944389343,6.9024834632873535,0.5410895943641663,9.07641887664795,-17.730974197387695,-1.5247195959091187,-0.9969320893287659,8.360552787780762,13.057975769042969,5.8657941818237305,-20.719327926635742,-1.6884315013885498,-0.3982841372489929,3.2154128551483154,16.40985870361328,-11.982979774475098,-20.49330711364746,-1.3903292417526245,0.5644394755363464,-6.354211330413818,16.565481185913086,-22.36184310913086,-18.28075408935547,-0.2321287989616394,-0.00855211354792118,1.941697597503662,-8.360552787780762,-32.30257034301758,-17.899574279785156,-0.18448130786418915,0.1869247704744339,10.735600471496582,-23.685836791992188,-26.206932067871094,-9.72253131866455,-0.4862487316131592,1.0201449394226074,0.5913678407669067,-3.9408559799194336,-17.02277374267578,6.935763835906982,0.39095374941825867,0.16249015927314758,6.560112476348877,4.134786128997803,-6.1315507888793945,10.131811141967773,0.15393804013729095,0.34697145223617554,3.864241600036621,0.7876923680305481,0.38067805767059326,6.354220390319824,0.7024950385093689,0.13316862285137177,2.0159177780151367,-4.771644115447998,0.33039984107017517,2.079385280609131,0.17592918872833252,0.0708603709936142,3.957615375518799,-6.296750545501709,-2.542642116546631,-0.6450737118721008,-0.3738495409488678,-0.03787364438176155,4.285621166229248,-6.1530985832214355,-8.243236541748047,-2.311514139175415,-0.40683624148368835,-0.19058994948863983,3.936067581176758,-7.134721279144287,-10.204087257385254,-2.4886651039123535,-0.3066543638706207,-0.15760323405265808,4.929661273956299,-6.081272125244141,-8.674192428588867,-0.02932153269648552,-0.22113321721553802,-0.06719517707824707,4.326322555541992,-4.32871675491333,-8.470685958862305,0.4508185386657715,-0.08307767659425735,-0.07696902006864548,4.812345504760742,-4.929661273956299,-8.4108304977417,0.49724429845809937,-0.05497787147760391,0.0354301854968071,4.963180065155029,-4.838681697845459,-7.173028469085693,0.6230825781822205,0.0012217304902151227,0.08307767659425735,4.180276393890381,-4.469974517822266,-6.605602264404297,0.36529740691185,0.012217304669320583,0.09896016865968704,4.2544965744018555,-4.869806289672852,-6.660669326782227,-0.34697145223617554,-0.06108652427792549,0.0806342139840126,4.230554580688477,-5.801150798797607,-7.062894821166992,-0.38240164518356323,-0.08185594528913498,0.04398229718208313,4.259284973144531,-5.078101634979248,-7.259219646453857,-0.2822197377681732,-0.08429940044879913,-0.030543262138962746,4.031835556030273,-5.329493045806885,-7.618350028991699,-0.14782938361167908,-0.07941248267889023,-0.006108652334660292,4.086902141571045,-4.944026470184326,-8.030152320861816,-0.0024434609804302454,-0.08918632566928864,-0.04764748737215996,4.031835556030273,-4.747702121734619,-7.793126583099365,-0.006108652334660292,-0.03420845419168472,-0.013439035043120384,4.084507942199707,-5.1116204261779785,-7.5968017578125,-0.004886921960860491,-0.0354301854968071,0.01466076634824276,4.127603530883789,-5.073313236236572,-7.4555439949035645,-0.024434609338641167,-0.03298672288656235,0.0,4.02465295791626,-5.252878665924072,-7.582436561584473,-0.012217304669320583,-0.03176499158143997,-0.00855211354792118,3.9169139862060547,-4.975151062011719,-7.501033782958984,0.039095375686883926,-0.01466076634824276,0.0,4.034229755401611,-4.738125324249268,-7.5848307609558105,-0.06475171446800232,-0.009773843921720982,0.004886921960860491,4.19224739074707,-4.350264549255371,-7.532158374786377,-0.3933972120285034,0.009773843921720982,0.0012217304902151227,4.120420932769775,-4.685452938079834,-7.723694801330566,-0.7660250067710876,0.02687807008624077,-0.00366519158706069,4.168305397033691,-5.200206279754639,-8.226476669311523,-0.9321803450584412,0.05375614017248154,0.004886921960860491,4.19224739074707,-5.322310447692871,-8.631096839904785,-0.7110471725463867,0.07941248267889023,-0.00366519158706069,4.034229755401611,-5.3127336502075195,-8.097189903259277,-0.0012217304902151227,0.10506882518529892,-0.0012217304902151227,4.019864559173584,-4.367023944854736,-7.292738437652588,0.32009339332580566,0.09040805697441101,-0.015882495790719986,3.9863457679748535,-4.2975921630859375,-7.01979923248291,0.3591887652873993,0.05742133408784866,0.004886921960860491,3.995922565460205,-4.668693542480469,-7.2352776527404785,0.1466076523065567,0.010995574295520782,0.015882495790719986,4.091690540313721,-5.106832027435303,-7.642292022705078,0.06352998316287994,-0.01466076634824276,0.00855211354792118
