label,sub_label,user,file_id,mobile_accel_x0,mobile_accel_y0,mobile_accel_z0,mobile_gyros_x0,mobile_gyros_y0,mobile_gyros_z0,mobile_accel_x1,mobile_accel_y1,mobile_accel_z1,mobile_gyros_x1,mobile_gyros_y1,mobile_gyros_z1,mobile_accel_x2,mobile_accel_y2,mobile_accel_z2,mobile_gyros_x2,mobile_gyros_y2,mobile_gyros_z2,mobile_accel_x3,mobile_accel_y3,mobile_accel_z3,mobile_gyros_x3,mobile_gyros_y3,mobile_gyros_z3,mobile_accel_x4,mobile_accel_y4,mobile_accel_z4,mobile_gyros_x4,mobile_gyros_y4,mobile_gyros_z4,mobile_accel_x5,mobile_accel_y5,mobile_accel_z5,mobile_gyros_x5,mobile_gyros_y5,mobile_gyros_z5,mobile_accel_x6,mobile_accel_y6,mobile_accel_z6,mobile_gyros_x6,mobile_gyros_y6,mobile_gyros_z6,mobile_accel_x7,mobile_accel_y7,mobile_accel_z7,mobile_gyros_x7,mobile_gyros_y7,mobile_gyros_z7,mobile_accel_x8,mobile_accel_y8,mobile_accel_z8,mobile_gyros_x8,mobile_gyros_y8,mobile_gyros_z8,mobile_accel_x9,mobile_accel_y9,mobile_accel_z9,mobile_gyros_x9,mobile_gyros_y9,mobile_gyros_z9,mobile_accel_x10,mobile_accel_y10,mobile_accel_z10,mobile_gyros_x10,mobile_gyros_y10,mobile_gyros_z10,mobile_accel_x11,mobile_accel_y11,mobile_accel_z11,mobile_gyros_x11,mobile_gyros_y11,mobile_gyros_z11,mobile_accel_x12,mobile_accel_y12,mobile_accel_z12,mobile_gyros_x12,mobile_gyros_y12,mobile_gyros_z12,mobile_accel_x13,mobile_accel_y13,mobile_accel_z13,mobile_gyros_x13,mobile_gyros_y13,mobile_gyros_z13,mobile_accel_x14,mobile_accel_y14,mobile_accel_z14,mobile_gyros_x14,mobile_gyros_y14,mobile_gyros_z14,mobile_accel_x15,mobile_accel_y15,mobile_accel_z15,mobile_gyros_x15,mobile_gyros_y15,mobile_gyros_z15,mobile_accel_x16,mobile_accel_y16,mobile_accel_z16,mobile_gyros_x16,mobile_gyros_y16,mobile_gyros_z16,mobile_accel_x17,mobile_accel_y17,mobile_accel_z17,mobile_gyros_x17,mobile_gyros_y17,mobile_gyros_z17,mobile_accel_x18,mobile_accel_y18,mobile_accel_z18,mobile_gyros_x18,mobile_gyros_y18,mobile_gyros_z18,mobile_accel_x19,mobile_accel_y19,mobile_accel_z19,mobile_gyros_x19,mobile_gyros_y19,mobile_gyros_z19,mobile_accel_x20,mobile_accel_y20,mobile_accel_z20,mobile_gyros_x20,mobile_gyros_y20,mobile_gyros_z20,mobile_accel_x21,mobile_accel_y21,mobile_accel_z21,mobile_gyros_x21,mobile_gyros_y21,mobile_gyros_z21,mobile_accel_x22,mobile_accel_y22,mobile_accel_z22,mobile_gyros_x22,mobile_gyros_y22,mobile_gyros_z22,mobile_accel_x23,mobile_accel_y23,mobile_accel_z23,mobile_gyros_x23,mobile_gyros_y23,mobile_gyros_z23,mobile_accel_x24,mobile_accel_y24,mobile_accel_z24,mobile_gyros_x24,mobile_gyros_y24,mobile_gyros_z24,mobile_accel_x25,mobile_accel_y25,mobile_accel_z25,mobile_gyros_x25,mobile_gyros_y25,mobile_gyros_z25,mobile_accel_x26,mobile_accel_y26,mobile_accel_z26,mobile_gyros_x26,mobile_gyros_y26,mobile_gyros_z26,mobile_accel_x27,mobile_accel_y27,mobile_accel_z27,mobile_gyros_x27,mobile_gyros_y27,mobile_gyros_z27,mobile_accel_x28,mobile_accel_y28,mobile_accel_z28,mobile_gyros_x28,mobile_gyros_y28,mobile_gyros_z28,mobile_accel_x29,mobile_accel_y29,mobile_accel_z29,mobile_gyros_x29,mobile_gyros_y29,mobile_gyros_z29,mobile_accel_x30,mobile_accel_y30,mobile_accel_z30,mobile_gyros_x30,mobile_gyros_y30,mobile_gyros_z30,mobile_accel_x31,mobile_accel_y31,mobile_accel_z31,mobile_gyros_x31,mobile_gyros_y31,mobile_gyros_z31,mobile_accel_x32,mobile_accel_y32,mobile_accel_z32,mobile_gyros_x32,mobile_gyros_y32,mobile_gyros_z32,mobile_accel_x33,mobile_accel_y33,mobile_accel_z33,mobile_gyros_x33,mobile_gyros_y33,mobile_gyros_z33,mobile_accel_x34,mobile_accel_y34,mobile_accel_z34,mobile_gyros_x34,mobile_gyros_y34,mobile_gyros_z34,mobile_accel_x35,mobile_accel_y35,mobile_accel_z35,mobile_gyros_x35,mobile_gyros_y35,mobile_gyros_z35,mobile_accel_x36,mobile_accel_y36,mobile_accel_z36,mobile_gyros_x36,mobile_gyros_y36,mobile_gyros_z36,mobile_accel_x37,mobile_accel_y37,mobile_accel_z37,mobile_gyros_x37,mobile_gyros_y37,mobile_gyros_z37,mobile_accel_x38,mobile_accel_y38,mobile_accel_z38,mobile_gyros_x38,mobile_gyros_y38,mobile_gyros_z38,mobile_accel_x39,mobile_accel_y39,mobile_accel_z39,mobile_gyros_x39,mobile_gyros_y39,mobile_gyros_z39,mobile_accel_x40,mobile_accel_y40,mobile_accel_z40,mobile_gyros_x40,mobile_gyros_y40,mobile_gyros_z40,mobile_accel_x41,mobile_accel_y41,mobile_accel_z41,mobile_gyros_x41,mobile_gyros_y41,mobile_gyros_z41,mobile_accel_x42,mobile_accel_y42,mobile_accel_z42,mobile_gyros_x42,mobile_gyros_y42,mobile_gyros_z42,mobile_accel_x43,mobile_accel_y43,mobile_accel_z43,mobile_gyros_x43,mobile_gyros_y43,mobile_gyros_z43,mobile_accel_x44,mobile_accel_y44,mobile_accel_z44,mobile_gyros_x44,mobile_gyros_y44,mobile_gyros_z44,mobile_accel_x45,mobile_accel_y45,mobile_accel_z45,mobile_gyros_x45,mobile_gyros_y45,mobile_gyros_z45,mobile_accel_x46,mobile_accel_y46,mobile_accel_z46,mobile_gyros_x46,mobile_gyros_y46,mobile_gyros_z46,mobile_accel_x47,mobile_accel_y47,mobile_accel_z47,mobile_gyros_x47,mobile_gyros_y47,mobile_gyros_z47,mobile_accel_x48,mobile_accel_y48,mobile_accel_z48,mobile_gyros_x48,mobile_gyros_y48,mobile_gyros_z48,mobile_accel_x49,mobile_accel_y49,mobile_accel_z49,mobile_gyros_x49,mobile_gyros_y49,mobile_gyros_z49,mobile_accel_x50,mobile_accel_y50,mobile_accel_z50,mobile_gyros_x50,mobile_gyros_y50,mobile_gyros_z50
shake,10201,205,205_10201_260413220346301,-9.232706069946289,8.754141807556152,1.3782658576965332,-0.7757982611656189,-1.5760310888290405,1.6905683279037476,-8.321041107177734,8.317451477050781,2.8043880462646484,-1.387273907661438,-1.5018110275268555,2.5918991565704346,-8.060821533203125,7.923832416534424,3.7740795612335205,-1.6407828330993652,-1.9242240190505981,3.5891361236572266,-7.369893550872803,7.868797302246094,4.1730828285217285,-1.8507676124572754,-2.3347251415252686,4.672810077667236,-5.36769962310791,6.454638957977295,3.9637107849121094,-2.249051332473755,-2.4181082248687744,5.669741630554199,-2.1882362365722656,4.880161762237549,4.724628448486328,-2.4373505115509033,-2.1945316791534424,5.7488484382629395,1.394417405128479,5.1876397132873535,5.382654666900635,-2.3591597080230713,-1.6044363975524902,4.747030258178711,4.213162422180176,4.777868747711182,6.535397052764893,-2.1273365020751953,-0.46395179629325867,3.33868145942688,6.93739128112793,4.107280254364014,7.999804496765137,-1.3214532136917114,1.0454950332641602,1.534186840057373,7.415955543518066,4.6372904777526855,10.52662467956543,0.3825540542602539,2.4576616287231445,-0.4517345130443573,5.851049423217773,3.988237142562866,10.692926406860352,2.2982261180877686,3.1024293899536133,-2.009134292602539,5.016552448272705,4.029513359069824,9.120243072509766,3.53446364402771,3.4151923656463623,-3.431227445602417,5.295914649963379,4.284348964691162,6.730412006378174,3.7226099967956543,3.9046475887298584,-5.111563682556152,2.5393829345703125,4.086941242218018,3.913461446762085,3.073871612548828,4.196640968322754,-5.9837260246276855,-2.1296122074127197,3.528217077255249,1.9208383560180664,2.2598941326141357,3.7375762462615967,-5.87667179107666,-7.256833076477051,4.689932346343994,2.311466693878174,1.8469496965408325,2.618624687194824,-4.621955871582031,-12.39123249053955,6.662814617156982,3.421736478805542,1.7171409130096436,0.9969313144683838,-2.495077133178711,-13.977075576782227,8.35274600982666,1.472184181213379,1.1220059394836426,-0.49281516671180725,-0.8289434909820557,-11.929417610168457,8.971290588378906,-0.058624155819416046,-0.24006985127925873,-1.1687370538711548,0.033139415085315704,-10.528419494628906,8.307880401611328,1.236491084098816,-1.0610721111297607,-1.323133111000061,0.6488910913467407,-9.21416187286377,8.103293418884277,3.9529430866241455,-0.8110756874084473,-1.23348867893219,1.0662645101547241,-8.380861282348633,7.585247993469238,4.517649173736572,-0.4007273018360138,-1.2534945011138916,1.3900227546691895,-7.050451755523682,7.312466144561768,4.018745422363281,-0.4612029194831848,-1.306334376335144,1.5021164417266846,-7.124031066894531,7.262814998626709,3.802793502807617,-0.6656898856163025,-1.5251766443252563,1.733481526374817,-7.237690448760986,7.162914752960205,4.098307132720947,-0.8347467184066772,-1.7815871238708496,2.1618504524230957,-5.947360515594482,7.020541667938232,4.380660057067871,-0.9468404054641724,-2.0305144786834717,2.38619065284729,-3.930211305618286,7.010970115661621,4.671986103057861,-1.1039854288101196,-2.180023670196533,2.3324344158172607,-2.6356940269470215,6.661618232727051,5.088337421417236,-1.2632683515548706,-2.240957498550415,2.27424955368042,-1.1150553226470947,6.356533527374268,5.892923831939697,-1.268766164779663,-1.9039127826690674,2.1163411140441895,0.18963119387626648,6.3840508460998535,6.75374174118042,-0.9483675956726074,-1.1859939098358154,1.751807451248169,0.641276478767395,6.57547664642334,7.445267677307129,-0.36774060130119324,-0.4309650957584381,1.4022401571273804,0.46719861030578613,6.508477687835693,7.266404151916504,0.1340848207473755,0.04764745384454727,1.17499840259552,0.3607180118560791,6.81296443939209,6.477969169616699,0.2516762912273407,0.21380266547203064,0.9462295174598694,0.1818545162677765,7.197610378265381,5.62672233581543,0.03023780696094036,0.0798705667257309,0.6615665555000305,0.03349951654672623,7.373483180999756,5.402993679046631,-0.2889390289783478,-0.19914191961288452,0.3165806829929352,-0.30927231907844543,7.143173694610596,5.84147834777832,-0.4477638900279999,-0.4324922561645508,0.07544180005788803,-0.47976094484329224,6.931408882141113,6.310471534729004,-0.41645705699920654,-0.5102248191833496,-0.004734201822429895,-0.529412031173706,6.896114826202393,6.714260101318359,-0.2678641974925995,-0.45280352234840393,0.01847865991294384,-0.3445664644241333,7.0857462882995605,6.760322093963623,-0.12522727251052856,-0.3254382014274597,-0.018631376326084137,-0.15194423496723175,7.256833076477051,6.608976364135742,-0.10018182545900345,-0.14004075527191162,-0.09392046183347702,-0.6520441770553589,7.2436723709106445,6.474977970123291,-0.13011419773101807,-0.13729186356067657,-0.021838415414094925,-0.7896314859390259,7.323233604431152,6.50189733505249,-0.19624030590057373,-0.17134757339954376,0.06582067906856537,-0.6191428303718567,7.453044414520264,6.530611038208008,-0.29397866129875183,-0.18081597983837128,0.07605266571044922,-0.6191428303718567,7.392625331878662,6.638886451721191,-0.41492989659309387,-0.18906265497207642,0.06750056147575378,-0.5341976284980774,7.155735969543457,6.970890522003174,-0.4650208055973053,-0.1718057245016098,0.07101303339004517,-0.537188708782196,6.990033149719238,7.406384468078613,-0.3526217043399811,-0.11774418503046036,0.11743875592947006,-0.5108676552772522,6.814758777618408,7.615756034851074,-0.1692095398902893,-0.03145953640341759,0.2049451321363449,-0.26500511169433594,6.921239376068115,7.5433735847473145,-0.020311253145337105,0.035124726593494415,0.21395538747310638,0.08614161610603333,7.004390239715576,7.1509504318237305,-0.03405570983886719,0.03711003437638283,0.10399972647428513,0.07537391036748886,6.87517786026001,6.971488952636719,-0.10659590363502502,-0.030085090547800064,0.01695149764418602,-0.13100704550743103,6.711269378662109,7.101897716522217,-0.11606431007385254,-0.05589412897825241,0.038789913058280945
