label,sub_label,user,file_id,mobile_accel_x0,mobile_accel_y0,mobile_accel_z0,mobile_gyros_x0,mobile_gyros_y0,mobile_gyros_z0,mobile_accel_x1,mobile_accel_y1,mobile_accel_z1,mobile_gyros_x1,mobile_gyros_y1,mobile_gyros_z1,mobile_accel_x2,mobile_accel_y2,mobile_accel_z2,mobile_gyros_x2,mobile_gyros_y2,mobile_gyros_z2,mobile_accel_x3,mobile_accel_y3,mobile_accel_z3,mobile_gyros_x3,mobile_gyros_y3,mobile_gyros_z3,mobile_accel_x4,mobile_accel_y4,mobile_accel_z4,mobile_gyros_x4,mobile_gyros_y4,mobile_gyros_z4,mobile_accel_x5,mobile_accel_y5,mobile_accel_z5,mobile_gyros_x5,mobile_gyros_y5,mobile_gyros_z5,mobile_accel_x6,mobile_accel_y6,mobile_accel_z6,mobile_gyros_x6,mobile_gyros_y6,mobile_gyros_z6,mobile_accel_x7,mobile_accel_y7,mobile_accel_z7,mobile_gyros_x7,mobile_gyros_y7,mobile_gyros_z7,mobile_accel_x8,mobile_accel_y8,mobile_accel_z8,mobile_gyros_x8,mobile_gyros_y8,mobile_gyros_z8,mobile_accel_x9,mobile_accel_y9,mobile_accel_z9,mobile_gyros_x9,mobile_gyros_y9,mobile_gyros_z9,mobile_accel_x10,mobile_accel_y10,mobile_accel_z10,mobile_gyros_x10,mobile_gyros_y10,mobile_gyros_z10,mobile_accel_x11,mobile_accel_y11,mobile_accel_z11,mobile_gyros_x11,mobile_gyros_y11,mobile_gyros_z11,mobile_accel_x12,mobile_accel_y12,mobile_accel_z12,mobile_gyros_x12,mobile_gyros_y12,mobile_gyros_z12,mobile_accel_x13,mobile_accel_y13,mobile_accel_z13,mobile_gyros_x13,mobile_gyros_y13,mobile_gyros_z13,mobile_accel_x14,mobile_accel_y14,mobile_accel_z14,mobile_gyros_x14,mobile_gyros_y14,mobile_gyros_z14,mobile_accel_x15,mobile_accel_y15,mobile_accel_z15,mobile_gyros_x15,mobile_gyros_y15,mobile_gyros_z15,mobile_accel_x16,mobile_accel_y16,mobile_accel_z16,mobile_gyros_x16,mobile_gyros_y16,mobile_gyros_z16,mobile_accel_x17,mobile_accel_y17,mobile_accel_z17,mobile_gyros_x17,mobile_gyros_y17,mobile_gyros_z17,mobile_accel_x18,mobile_accel_y18,mobile_accel_z18,mobile_gyros_x18,mobile_gyros_y18,mobile_gyros_z18,mobile_accel_x19,mobile_accel_y19,mobile_accel_z19,mobile_gyros_x19,mobile_gyros_y19,mobile_gyros_z19,mobile_accel_x20,mobile_accel_y20,mobile_accel_z20,mobile_gyros_x20,mobile_gyros_y20,mobile_gyros_z20,mobile_accel_x21,mobile_accel_y21,mobile_accel_z21,mobile_gyros_x21,mobile_gyros_y21,mobile_gyros_z21,mobile_accel_x22,mobile_accel_y22,mobile_accel_z22,mobile_gyros_x22,mobile_gyros_y22,mobile_gyros_z22,mobile_accel_x23,mobile_accel_y23,mobile_accel_z23,mobile_gyros_x23,mobile_gyros_y23,mobile_gyros_z23,mobile_accel_x24,mobile_accel_y24,mobile_accel_z24,mobile_gyros_x24,mobile_gyros_y24,mobile_gyros_z24,mobile_accel_x25,mobile_accel_y25,mobile_accel_z25,mobile_gyros_x25,mobile_gyros_y25,mobile_gyros_z25,mobile_accel_x26,mobile_accel_y26,mobile_accel_z26,mobile_gyros_x26,mobile_gyros_y26,mobile_gyros_z26,mobile_accel_x27,mobile_accel_y27,mobile_accel_z27,mobile_gyros_x27,mobile_gyros_y27,mobile_gyros_z27,mobile_accel_x28,mobile_accel_y28,mobile_accel_z28,mobile_gyros_x28,mobile_gyros_y28,mobile_gyros_z28,mobile_accel_x29,mobile_accel_y29,mobile_accel_z29,mobile_gyros_x29,mobile_gyros_y29,mobile_gyros_z29,mobile_accel_x30,mobile_accel_y30,mobile_accel_z30,mobile_gyros_x30,mobile_gyros_y30,mobile_gyros_z30,mobile_accel_x31,mobile_accel_y31,mobile_accel_z31,mobile_gyros_x31,mobile_gyros_y31,mobile_gyros_z31,mobile_accel_x32,mobile_accel_y32,mobile_accel_z32,mobile_gyros_x32,mobile_gyros_y32,mobile_gyros_z32,mobile_accel_x33,mobile_accel_y33,mobile_accel_z33,mobile_gyros_x33,mobile_gyros_y33,mobile_gyros_z33,mobile_accel_x34,mobile_accel_y34,mobile_accel_z34,mobile_gyros_x34,mobile_gyros_y34,mobile_gyros_z34,mobile_accel_x35,mobile_accel_y35,mobile_accel_z35,mobile_gyros_x35,mobile_gyros_y35,mobile_gyros_z35,mobile_accel_x36,mobile_accel_y36,mobile_accel_z36,mobile_gyros_x36,mobile_gyros_y36,mobile_gyros_z36,mobile_accel_x37,mobile_accel_y37,mobile_accel_z37,mobile_gyros_x37,mobile_gyros_y37,mobile_gyros_z37,mobile_accel_x38,mobile_accel_y38,mobile_accel_z38,mobile_gyros_x38,mobile_gyros_y38,mobile_gyros_z38,mobile_accel_x39,mobile_accel_y39,mobile_accel_z39,mobile_gyros_x39,mobile_gyros_y39,mobile_gyros_z39,mobile_accel_x40,mobile_accel_y40,mobile_accel_z40,mobile_gyros_x40,mobile_gyros_y40,mobile_gyros_z40,mobile_accel_x41,mobile_accel_y41,mobile_accel_z41,mobile_gyros_x41,mobile_gyros_y41,mobile_gyros_z41,mobile_accel_x42,mobile_accel_y42,mobile_accel_z42,mobile_gyros_x42,mobile_gyros_y42,mobile_gyros_z42,mobile_accel_x43,mobile_accel_y43,mobile_accel_z43,mobile_gyros_x43,mobile_gyros_y43,mobile_gyros_z43,mobile_accel_x44,mobile_accel_y44,mobile_accel_z44,mobile_gyros_x44,mobile_gyros_y44,mobile_gyros_z44,mobile_accel_x45,mobile_accel_y45,mobile_accel_z45,mobile_gyros_x45,mobile_gyros_y45,mobile_gyros_z45,mobile_accel_x46,mobile_accel_y46,mobile_accel_z46,mobile_gyros_x46,mobile_gyros_y46,mobile_gyros_z46,mobile_accel_x47,mobile_accel_y47,mobile_accel_z47,mobile_gyros_x47,mobile_gyros_y47,mobile_gyros_z47,mobile_accel_x48,mobile_accel_y48,mobile_accel_z48,mobile_gyros_x48,mobile_gyros_y48,mobile_gyros_z48,mobile_accel_x49,mobile_accel_y49,mobile_accel_z49,mobile_gyros_x49,mobile_gyros_y49,mobile_gyros_z49,mobile_accel_x50,mobile_accel_y50,mobile_accel_z50,mobile_gyros_x50,mobile_gyros_y50,mobile_gyros_z50
shake,10202,114,114_10202_260411000705503,5.242076396942139,-3.6257245540618896,6.652047157287598,-1.0401500463485718,-0.4042397737503052,2.9860596656799316,10.328619003295898,-3.8560338020324707,9.544371604919434,-0.7409789562225342,-0.6053670048713684,1.5502220392227173,14.741581916809082,-3.177668571472168,11.029117584228516,0.37629270553588867,0.07101303339004517,-0.8472694754600525,18.710676193237305,-2.306680917739868,8.033304214477539,0.8498656153678894,0.7170025110244751,-4.372264862060547,17.81576156616211,-2.2959132194519043,4.361517429351807,-0.33658650517463684,0.37400195002555847,-8.270498275756836,12.293126106262207,-6.956533432006836,3.3415768146514893,-2.720944404602051,-0.8778126835823059,-11.645220756530762,1.0145567655563354,-17.250455856323242,9.323633193969727,-4.416552543640137,-0.5687150955200195,-13.715289115905762,-25.319053649902344,-19.145572662353516,16.44527244567871,-3.4083199501037598,0.48762279748916626,-10.918444633483887,-40.48297119140625,-1.2263215780258179,24.274587631225586,-1.2822052240371704,-0.31581708788871765,-2.7401866912841797,-29.23072052001953,9.403793334960938,24.71965217590332,0.9369138479232788,-1.6267329454421997,3.2418594360351562,-14.656637191772461,1.2969099283218384,14.639288902282715,1.680947184562683,-0.47784897685050964,5.412872791290283,-6.656832695007324,-1.4691931009292603,10.594222068786621,0.9031635522842407,1.7635666131973267,5.768854141235352,-6.187839508056641,-2.8893332481384277,12.345170021057129,1.1291835308074951,2.430936336517334,6.562673091888428,-3.4468610286712646,-6.904489517211914,10.922039031982422,1.7542508840560913,2.042884588241577,7.381537437438965,4.006781578063965,-10.840682983398438,8.803792953491211,2.210414171218872,1.3559670448303223,6.994707107543945,18.705293655395508,-11.692527770996094,5.516054630279541,2.090379238128662,0.29016077518463135,4.0078840255737305,35.89832305908203,-6.009573936462402,1.3244273662567139,0.5004509687423706,-0.22220206260681152,-2.7065892219543457,28.578079223632812,-10.441082000732422,2.6847469806671143,-1.4520255327224731,-0.6359102129936218,-9.3749418258667,12.63589859008789,-16.4913330078125,10.882556915283203,-1.9036073684692383,-1.0671807527542114,-12.759896278381348,-12.190235137939453,-16.727025985717773,16.8999080657959,-0.41676250100135803,-0.7820596098899841,-11.55527114868164,-32.99702453613281,-1.932204246520996,16.736597061157227,0.8058833479881287,-1.1575887203216553,-5.409971237182617,-31.16771125793457,10.336994171142578,13.508082389831543,0.3249800503253937,-1.3319905996322632,0.767551600933075,-19.555940628051758,5.510072231292725,12.230315208435059,-0.23105959594249725,-0.7324268817901611,3.7227625846862793,-9.866804122924805,1.2041879892349243,14.322239875793457,-0.07147117704153061,0.6530144214630127,4.194961071014404,-7.63609504699707,-0.45643091201782227,14.147563934326172,0.8384119272232056,1.2101231813430786,4.133416652679443,-7.272386074066162,-1.5876377820968628,10.886146545410156,1.5738930702209473,0.5633700489997864,4.468017578125,-4.106083869934082,-2.1649062633514404,8.081758499145508,1.599549412727356,0.17073670029640198,4.575988292694092,-0.04785645380616188,-2.094916343688965,6.538387775421143,1.1543817520141602,0.21685700118541718,4.187630653381348,2.7966115474700928,-1.3525429964065552,6.165705680847168,0.5378664135932922,0.05436696484684944,3.5225517749786377,4.334598064422607,-0.5946164131164551,6.369693756103516,-0.09865466505289078,-0.5484038591384888,2.716210126876831,5.351547718048096,-0.1866401731967926,7.5912299156188965,-0.6157516837120056,-0.99968022108078,1.874896764755249,5.578267574310303,0.3433700501918793,9.517452239990234,-0.6753110289573669,-0.9914335608482361,1.0803143978118896,4.808377265930176,0.6640082597732544,10.721639633178711,-0.31581708788871765,-0.6954695582389832,0.3695732057094574,3.081955671310425,0.8691928386688232,10.761719703674316,0.043371398001909256,-0.3507890999317169,-0.06780599057674408,1.7629120349884033,1.0947163105010986,10.201799392700195,0.20189081132411957,-0.10735948383808136,-0.2331976294517517,0.8578268885612488,1.4632110595703125,9.5533447265625,0.16966769099235535,-0.12736530601978302,-0.26129740476608276,0.35892340540885925,1.832902193069458,9.309874534606934,0.03252854943275452,-0.24404047429561615,-0.22006404399871826,0.22492532432079315,2.042274236679077,9.395418167114258,-0.03145953640341759,-0.33536475896835327,-0.16355904936790466,0.11006984114646912,2.0895323753356934,9.499505996704102,-0.027488915249705315,-0.30115634202957153,-0.1207985132932663,0.04905286431312561,2.0997018814086914,9.55214786529541,0.013286309316754341,-0.13164135813713074,-0.07223475724458694,0.039481572806835175,2.1469600200653076,9.480362892150879,0.07605266571044922,-0.031612250953912735,-0.025503603741526604,0.026919255033135414,2.1571295261383057,9.33858871459961,0.09147699922323227,0.05024362727999687,0.010079269297420979,0.3074777126312256,2.228914260864258,9.396016120910645,0.10980294644832611,0.10842850059270859,0.01282816007733345,0.3415754437446594,2.3018953800201416,9.339784622192383,0.09407317638397217,0.13133592903614044,-0.019394956529140472,0.21655045449733734,2.3150558471679688,9.251849174499512,-0.015577051788568497,0.07757982611656189,-0.032681263983249664,-0.09690931439399719,2.2606191635131836,9.491130828857422,-0.10384701192378998,-0.058795735239982605,0.016646064817905426,0.12442677468061447,2.231307029724121,9.93679428100586,-0.08124501258134842,-0.06780599057674408,0.0850629210472107,0.43908295035362244,2.172683000564575,10.067801475524902,0.02306014485657215,0.018631376326084137,0.1101083755493164,0.6065805554389954,2.1230318546295166,9.92542839050293,0.0870482325553894,0.0951421856880188,0.0951421856880188,0.633499801158905,2.1278176307678223,9.735796928405762,0.0951421856880188,0.1127045527100563,0.06704241037368774,0.5521438121795654,2.1092731952667236,9.516854286193848,0.03451386094093323,0.018631376326084137,0.03451386094093323
