label,sub_label,user,file_id,mobile_accel_x0,mobile_accel_y0,mobile_accel_z0,mobile_gyros_x0,mobile_gyros_y0,mobile_gyros_z0,mobile_accel_x1,mobile_accel_y1,mobile_accel_z1,mobile_gyros_x1,mobile_gyros_y1,mobile_gyros_z1,mobile_accel_x2,mobile_accel_y2,mobile_accel_z2,mobile_gyros_x2,mobile_gyros_y2,mobile_gyros_z2,mobile_accel_x3,mobile_accel_y3,mobile_accel_z3,mobile_gyros_x3,mobile_gyros_y3,mobile_gyros_z3,mobile_accel_x4,mobile_accel_y4,mobile_accel_z4,mobile_gyros_x4,mobile_gyros_y4,mobile_gyros_z4,mobile_accel_x5,mobile_accel_y5,mobile_accel_z5,mobile_gyros_x5,mobile_gyros_y5,mobile_gyros_z5,mobile_accel_x6,mobile_accel_y6,mobile_accel_z6,mobile_gyros_x6,mobile_gyros_y6,mobile_gyros_z6,mobile_accel_x7,mobile_accel_y7,mobile_accel_z7,mobile_gyros_x7,mobile_gyros_y7,mobile_gyros_z7,mobile_accel_x8,mobile_accel_y8,mobile_accel_z8,mobile_gyros_x8,mobile_gyros_y8,mobile_gyros_z8,mobile_accel_x9,mobile_accel_y9,mobile_accel_z9,mobile_gyros_x9,mobile_gyros_y9,mobile_gyros_z9,mobile_accel_x10,mobile_accel_y10,mobile_accel_z10,mobile_gyros_x10,mobile_gyros_y10,mobile_gyros_z10,mobile_accel_x11,mobile_accel_y11,mobile_accel_z11,mobile_gyros_x11,mobile_gyros_y11,mobile_gyros_z11,mobile_accel_x12,mobile_accel_y12,mobile_accel_z12,mobile_gyros_x12,mobile_gyros_y12,mobile_gyros_z12,mobile_accel_x13,mobile_accel_y13,mobile_accel_z13,mobile_gyros_x13,mobile_gyros_y13,mobile_gyros_z13,mobile_accel_x14,mobile_accel_y14,mobile_accel_z14,mobile_gyros_x14,mobile_gyros_y14,mobile_gyros_z14,mobile_accel_x15,mobile_accel_y15,mobile_accel_z15,mobile_gyros_x15,mobile_gyros_y15,mobile_gyros_z15,mobile_accel_x16,mobile_accel_y16,mobile_accel_z16,mobile_gyros_x16,mobile_gyros_y16,mobile_gyros_z16,mobile_accel_x17,mobile_accel_y17,mobile_accel_z17,mobile_gyros_x17,mobile_gyros_y17,mobile_gyros_z17,mobile_accel_x18,mobile_accel_y18,mobile_accel_z18,mobile_gyros_x18,mobile_gyros_y18,mobile_gyros_z18,mobile_accel_x19,mobile_accel_y19,mobile_accel_z19,mobile_gyros_x19,mobile_gyros_y19,mobile_gyros_z19,mobile_accel_x20,mobile_accel_y20,mobile_accel_z20,mobile_gyros_x20,mobile_gyros_y20,mobile_gyros_z20,mobile_accel_x21,mobile_accel_y21,mobile_accel_z21,mobile_gyros_x21,mobile_gyros_y21,mobile_gyros_z21,mobile_accel_x22,mobile_accel_y22,mobile_accel_z22,mobile_gyros_x22,mobile_gyros_y22,mobile_gyros_z22,mobile_accel_x23,mobile_accel_y23,mobile_accel_z23,mobile_gyros_x23,mobile_gyros_y23,mobile_gyros_z23,mobile_accel_x24,mobile_accel_y24,mobile_accel_z24,mobile_gyros_x24,mobile_gyros_y24,mobile_gyros_z24,mobile_accel_x25,mobile_accel_y25,mobile_accel_z25,mobile_gyros_x25,mobile_gyros_y25,mobile_gyros_z25,mobile_accel_x26,mobile_accel_y26,mobile_accel_z26,mobile_gyros_x26,mobile_gyros_y26,mobile_gyros_z26,mobile_accel_x27,mobile_accel_y27,mobile_accel_z27,mobile_gyros_x27,mobile_gyros_y27,mobile_gyros_z27,mobile_accel_x28,mobile_accel_y28,mobile_accel_z28,mobile_gyros_x28,mobile_gyros_y28,mobile_gyros_z28,mobile_accel_x29,mobile_accel_y29,mobile_accel_z29,mobile_gyros_x29,mobile_gyros_y29,mobile_gyros_z29,mobile_accel_x30,mobile_accel_y30,mobile_accel_z30,mobile_gyros_x30,mobile_gyros_y30,mobile_gyros_z30,mobile_accel_x31,mobile_accel_y31,mobile_accel_z31,mobile_gyros_x31,mobile_gyros_y31,mobile_gyros_z31,mobile_accel_x32,mobile_accel_y32,mobile_accel_z32,mobile_gyros_x32,mobile_gyros_y32,mobile_gyros_z32,mobile_accel_x33,mobile_accel_y33,mobile_accel_z33,mobile_gyros_x33,mobile_gyros_y33,mobile_gyros_z33,mobile_accel_x34,mobile_accel_y34,mobile_accel_z34,mobile_gyros_x34,mobile_gyros_y34,mobile_gyros_z34,mobile_accel_x35,mobile_accel_y35,mobile_accel_z35,mobile_gyros_x35,mobile_gyros_y35,mobile_gyros_z35,mobile_accel_x36,mobile_accel_y36,mobile_accel_z36,mobile_gyros_x36,mobile_gyros_y36,mobile_gyros_z36,mobile_accel_x37,mobile_accel_y37,mobile_accel_z37,mobile_gyros_x37,mobile_gyros_y37,mobile_gyros_z37,mobile_accel_x38,mobile_accel_y38,mobile_accel_z38,mobile_gyros_x38,mobile_gyros_y38,mobile_gyros_z38,mobile_accel_x39,mobile_accel_y39,mobile_accel_z39,mobile_gyros_x39,mobile_gyros_y39,mobile_gyros_z39,mobile_accel_x40,mobile_accel_y40,mobile_accel_z40,mobile_gyros_x40,mobile_gyros_y40,mobile_gyros_z40,mobile_accel_x41,mobile_accel_y41,mobile_accel_z41,mobile_gyros_x41,mobile_gyros_y41,mobile_gyros_z41,mobile_accel_x42,mobile_accel_y42,mobile_accel_z42,mobile_gyros_x42,mobile_gyros_y42,mobile_gyros_z42,mobile_accel_x43,mobile_accel_y43,mobile_accel_z43,mobile_gyros_x43,mobile_gyros_y43,mobile_gyros_z43,mobile_accel_x44,mobile_accel_y44,mobile_accel_z44,mobile_gyros_x44,mobile_gyros_y44,mobile_gyros_z44,mobile_accel_x45,mobile_accel_y45,mobile_accel_z45,mobile_gyros_x45,mobile_gyros_y45,mobile_gyros_z45,mobile_accel_x46,mobile_accel_y46,mobile_accel_z46,mobile_gyros_x46,mobile_gyros_y46,mobile_gyros_z46,mobile_accel_x47,mobile_accel_y47,mobile_accel_z47,mobile_gyros_x47,mobile_gyros_y47,mobile_gyros_z47,mobile_accel_x48,mobile_accel_y48,mobile_accel_z48,mobile_gyros_x48,mobile_gyros_y48,mobile_gyros_z48
shake,10202,114,114_10202_260411000637694,9.18006420135498,0.48514479398727417,7.430312633514404,-1.2380702495574951,0.0717766135931015,-2.9684975147247314,10.8430757522583,-1.0827522277832031,7.807182312011719,-1.6798781156539917,-0.21716243028640747,-5.167152404785156,7.642675399780273,-3.775874137878418,9.740582466125488,-1.8338160514831543,0.18142683804035187,-7.164680480957031,-4.937589645385742,-5.995217323303223,13.673785209655762,-1.1160500049591064,1.3513855934143066,-7.1431474685668945,-18.22852325439453,-0.4336991012096405,17.287546157836914,0.8020654320716858,1.796858787536621,-4.438238143920898,-26.260629653930664,5.407779216766357,13.660026550292969,1.7241657972335815,0.7254019379615784,-0.04932733252644539,-20.30369758605957,7.467401027679443,8.295317649841309,0.5671879649162292,-0.24694208800792694,3.3368489742279053,-10.822138786315918,4.548157691955566,9.504291534423828,-0.28069236874580383,-0.8799507021903992,4.227489471435547,-7.671389579772949,2.981456995010376,12.038888931274414,-0.09162971377372742,-1.1236857175827026,4.498560905456543,-5.952146530151367,0.666999340057373,12.309876441955566,0.5684096813201904,-0.7040216326713562,5.024363040924072,-0.08793623000383377,-1.8023936748504639,10.823334693908691,1.4624103307724,-0.13744457066059113,4.715723514556885,6.641279220581055,-3.102294445037842,7.99083137512207,1.970038890838623,-0.1701258420944214,3.4519968032836914,14.586647033691406,-3.697509288787842,3.7603209018707275,1.3923135995864868,-0.5616901516914368,1.23348867893219,23.56272315979004,-2.3294129371643066,0.2476571500301361,-0.25503605604171753,-0.2782489061355591,-2.6638286113739014,21.066410064697266,-4.457230567932129,1.1306086778640747,-1.9601123332977295,0.5598575472831726,-6.455313682556152,10.587641716003418,-8.508877754211426,6.082555294036865,-2.2985315322875977,1.5138756036758423,-8.535919189453125,-4.370490550994873,-9.717850685119629,9.806983947753906,-1.505781650543213,1.6100867986679077,-8.436959266662598,-21.179471969604492,-1.1808580160140991,13.59900951385498,-0.295811265707016,0.15179990231990814,-4.680598735809326,-21.323040008544922,5.744568824768066,13.843077659606934,0.09147699922323227,-1.0630574226379395,-0.2075413018465042,-12.661023139953613,5.483152866363525,12.54018497467041,0.07528908550739288,-0.46028661727905273,1.7417281866073608,-7.722835063934326,3.8488552570343018,12.594023704528809,-0.09987638890743256,1.012661099433899,2.000734806060791,-7.993224143981934,3.3894333839416504,13.934602737426758,0.16157373785972595,1.4572179317474365,2.2204935550689697,-8.041678428649902,2.4681966304779053,12.962518692016602,0.7790052890777588,0.4889972507953644,2.4608688354492188,-5.459224700927734,1.6396816968917847,10.85862922668457,1.2986985445022583,-0.39736753702163696,2.2038474082946777,-2.66560435295105,1.4422738552093506,8.822935104370117,1.4106395244598389,-0.5047270059585571,1.6421571969985962,-1.1617153882980347,1.9411773681640625,7.47637414932251,1.1117738485336304,-0.32360562682151794,1.2712095975875854,-0.7782655358314514,2.4388844966888428,6.923034191131592,0.5671879649162292,-0.34956738352775574,1.0502293109893799,-0.9391828775405884,2.5920250415802,7.5086774826049805,0.16737695038318634,-0.6221657991409302,0.9914335608482361,-0.4007977843284607,2.7314071655273438,8.14636516571045,-0.05299251899123192,-0.7718276381492615,1.0123556852340698,0.3188436031341553,2.761317253112793,8.700303077697754,-0.12721258401870728,-0.7011200785636902,0.9589049816131592,0.9176474809646606,2.733799934387207,9.096315383911133,-0.08307760953903198,-0.5293143391609192,0.7985529899597168,1.3764712810516357,2.669193744659424,9.33559799194336,0.015729768201708794,-0.2906189262866974,0.5016726851463318,1.2921242713928223,2.8396823406219482,9.379864692687988,0.15500694513320923,-0.1389717310667038,0.1591302752494812,0.4989035129547119,2.9928228855133057,9.19143009185791,0.24663665890693665,-0.14721840620040894,-0.0766635313630104,-0.35533416271209717,3.115455150604248,8.919246673583984,0.25442516803741455,-0.19700388610363007,-0.12935061752796173,-0.753140926361084,3.1956145763397217,8.730812072753906,0.20189081132411957,-0.17852523922920227,-0.04367683082818985,-0.6699903607368469,3.300898790359497,8.583653450012207,0.0870482325553894,-0.16707152128219604,0.07162389904260635,-0.5676971673965454,3.2721848487854004,8.662017822265625,-0.006108647678047419,-0.17852523922920227,0.12232567369937897,-0.47976094484329224,3.3296127319335938,8.813364028930664,-0.0818558782339096,-0.1792888194322586,0.15775582194328308,-0.33379876613616943,3.245863914489746,8.95693302154541,-0.13942988216876984,-0.20219624042510986,0.16798780858516693,-0.1501496136188507,3.2793633937835693,9.18006420135498,-0.14782927930355072,-0.2208276242017746,0.12034036219120026,-0.061016976833343506,3.284747362136841,9.41635513305664,-0.10109812021255493,-0.15286891162395477,0.07070759683847427,-0.07657032459974289,3.345165967941284,9.45763111114502,-0.027336198836565018,-0.030695954337716103,-0.004123337101191282,-0.3924229145050049,3.3990044593811035,9.46301555633545,0.014202605932950974,0.09178243577480316,-0.009010255336761475,-0.6460621356964111,3.5258240699768066,9.362516403198242,0.020769402384757996,0.04413498193025589,0.05925388261675835,-0.5132604837417603,3.5712878704071045,9.278169631958008,0.003665188793092966,-0.0925460159778595,0.10949750989675522,-0.29790642857551575,3.555734395980835,9.21715259552002,-0.034208428114652634,-0.15241076052188873,0.11804962158203125,-0.10827522724866867,3.5162527561187744,9.290732383728027,-0.06933315098285675,-0.11591159552335739,0.10690133273601532,-0.09451649338006973,3.4025938510894775,9.464211463928223,-0.036651886999607086,-0.04169152304530144,0.09117157012224197
