label,sub_label,user,file_id,mobile_accel_x0,mobile_accel_y0,mobile_accel_z0,mobile_gyros_x0,mobile_gyros_y0,mobile_gyros_z0,mobile_accel_x1,mobile_accel_y1,mobile_accel_z1,mobile_gyros_x1,mobile_gyros_y1,mobile_gyros_z1,mobile_accel_x2,mobile_accel_y2,mobile_accel_z2,mobile_gyros_x2,mobile_gyros_y2,mobile_gyros_z2,mobile_accel_x3,mobile_accel_y3,mobile_accel_z3,mobile_gyros_x3,mobile_gyros_y3,mobile_gyros_z3,mobile_accel_x4,mobile_accel_y4,mobile_accel_z4,mobile_gyros_x4,mobile_gyros_y4,mobile_gyros_z4,mobile_accel_x5,mobile_accel_y5,mobile_accel_z5,mobile_gyros_x5,mobile_gyros_y5,mobile_gyros_z5,mobile_accel_x6,mobile_accel_y6,mobile_accel_z6,mobile_gyros_x6,mobile_gyros_y6,mobile_gyros_z6,mobile_accel_x7,mobile_accel_y7,mobile_accel_z7,mobile_gyros_x7,mobile_gyros_y7,mobile_gyros_z7,mobile_accel_x8,mobile_accel_y8,mobile_accel_z8,mobile_gyros_x8,mobile_gyros_y8,mobile_gyros_z8,mobile_accel_x9,mobile_accel_y9,mobile_accel_z9,mobile_gyros_x9,mobile_gyros_y9,mobile_gyros_z9,mobile_accel_x10,mobile_accel_y10,mobile_accel_z10,mobile_gyros_x10,mobile_gyros_y10,mobile_gyros_z10,mobile_accel_x11,mobile_accel_y11,mobile_accel_z11,mobile_gyros_x11,mobile_gyros_y11,mobile_gyros_z11,mobile_accel_x12,mobile_accel_y12,mobile_accel_z12,mobile_gyros_x12,mobile_gyros_y12,mobile_gyros_z12,mobile_accel_x13,mobile_accel_y13,mobile_accel_z13,mobile_gyros_x13,mobile_gyros_y13,mobile_gyros_z13,mobile_accel_x14,mobile_accel_y14,mobile_accel_z14,mobile_gyros_x14,mobile_gyros_y14,mobile_gyros_z14,mobile_accel_x15,mobile_accel_y15,mobile_accel_z15,mobile_gyros_x15,mobile_gyros_y15,mobile_gyros_z15,mobile_accel_x16,mobile_accel_y16,mobile_accel_z16,mobile_gyros_x16,mobile_gyros_y16,mobile_gyros_z16,mobile_accel_x17,mobile_accel_y17,mobile_accel_z17,mobile_gyros_x17,mobile_gyros_y17,mobile_gyros_z17,mobile_accel_x18,mobile_accel_y18,mobile_accel_z18,mobile_gyros_x18,mobile_gyros_y18,mobile_gyros_z18,mobile_accel_x19,mobile_accel_y19,mobile_accel_z19,mobile_gyros_x19,mobile_gyros_y19,mobile_gyros_z19,mobile_accel_x20,mobile_accel_y20,mobile_accel_z20,mobile_gyros_x20,mobile_gyros_y20,mobile_gyros_z20,mobile_accel_x21,mobile_accel_y21,mobile_accel_z21,mobile_gyros_x21,mobile_gyros_y21,mobile_gyros_z21,mobile_accel_x22,mobile_accel_y22,mobile_accel_z22,mobile_gyros_x22,mobile_gyros_y22,mobile_gyros_z22,mobile_accel_x23,mobile_accel_y23,mobile_accel_z23,mobile_gyros_x23,mobile_gyros_y23,mobile_gyros_z23,mobile_accel_x24,mobile_accel_y24,mobile_accel_z24,mobile_gyros_x24,mobile_gyros_y24,mobile_gyros_z24,mobile_accel_x25,mobile_accel_y25,mobile_accel_z25,mobile_gyros_x25,mobile_gyros_y25,mobile_gyros_z25,mobile_accel_x26,mobile_accel_y26,mobile_accel_z26,mobile_gyros_x26,mobile_gyros_y26,mobile_gyros_z26,mobile_accel_x27,mobile_accel_y27,mobile_accel_z27,mobile_gyros_x27,mobile_gyros_y27,mobile_gyros_z27,mobile_accel_x28,mobile_accel_y28,mobile_accel_z28,mobile_gyros_x28,mobile_gyros_y28,mobile_gyros_z28,mobile_accel_x29,mobile_accel_y29,mobile_accel_z29,mobile_gyros_x29,mobile_gyros_y29,mobile_gyros_z29,mobile_accel_x30,mobile_accel_y30,mobile_accel_z30,mobile_gyros_x30,mobile_gyros_y30,mobile_gyros_z30,mobile_accel_x31,mobile_accel_y31,mobile_accel_z31,mobile_gyros_x31,mobile_gyros_y31,mobile_gyros_z31,mobile_accel_x32,mobile_accel_y32,mobile_accel_z32,mobile_gyros_x32,mobile_gyros_y32,mobile_gyros_z32,mobile_accel_x33,mobile_accel_y33,mobile_accel_z33,mobile_gyros_x33,mobile_gyros_y33,mobile_gyros_z33,mobile_accel_x34,mobile_accel_y34,mobile_accel_z34,mobile_gyros_x34,mobile_gyros_y34,mobile_gyros_z34,mobile_accel_x35,mobile_accel_y35,mobile_accel_z35,mobile_gyros_x35,mobile_gyros_y35,mobile_gyros_z35,mobile_accel_x36,mobile_accel_y36,mobile_accel_z36,mobile_gyros_x36,mobile_gyros_y36,mobile_gyros_z36,mobile_accel_x37,mobile_accel_y37,mobile_accel_z37,mobile_gyros_x37,mobile_gyros_y37,mobile_gyros_z37,mobile_accel_x38,mobile_accel_y38,mobile_accel_z38,mobile_gyros_x38,mobile_gyros_y38,mobile_gyros_z38,mobile_accel_x39,mobile_accel_y39,mobile_accel_z39,mobile_gyros_x39,mobile_gyros_y39,mobile_gyros_z39,mobile_accel_x40,mobile_accel_y40,mobile_accel_z40,mobile_gyros_x40,mobile_gyros_y40,mobile_gyros_z40,mobile_accel_x41,mobile_accel_y41,mobile_accel_z41,mobile_gyros_x41,mobile_gyros_y41,mobile_gyros_z41,mobile_accel_x42,mobile_accel_y42,mobile_accel_z42,mobile_gyros_x42,mobile_gyros_y42,mobile_gyros_z42,mobile_accel_x43,mobile_accel_y43,mobile_accel_z43,mobile_gyros_x43,mobile_gyros_y43,mobile_gyros_z43,mobile_accel_x44,mobile_accel_y44,mobile_accel_z44,mobile_gyros_x44,mobile_gyros_y44,mobile_gyros_z44,mobile_accel_x45,mobile_accel_y45,mobile_accel_z45,mobile_gyros_x45,mobile_gyros_y45,mobile_gyros_z45,mobile_accel_x46,mobile_accel_y46,mobile_accel_z46,mobile_gyros_x46,mobile_gyros_y46,mobile_gyros_z46,mobile_accel_x47,mobile_accel_y47,mobile_accel_z47,mobile_gyros_x47,mobile_gyros_y47,mobile_gyros_z47,mobile_accel_x48,mobile_accel_y48,mobile_accel_z48,mobile_gyros_x48,mobile_gyros_y48,mobile_gyros_z48,mobile_accel_x49,mobile_accel_y49,mobile_accel_z49,mobile_gyros_x49,mobile_gyros_y49,mobile_gyros_z49,mobile_accel_x50,mobile_accel_y50,mobile_accel_z50,mobile_gyros_x50,mobile_gyros_y50,mobile_gyros_z50
shake,10202,114,114_10202_260411000730892,11.897113800048828,-2.6847469806671143,7.905886173248291,-0.6021599769592285,0.12935061752796173,-2.0662500858306885,14.841482162475586,-1.9621145725250244,6.8482584953308105,-0.8677334189414978,0.11957678198814392,-4.8070478439331055,12.991231918334961,-4.077369689941406,6.440282344818115,-1.9885175228118896,0.17195843160152435,-7.805324554443359,6.932605266571045,-9.790233612060547,9.295517921447754,-2.9943063259124756,0.758083164691925,-10.495420455932617,-6.017350673675537,-15.836896896362305,14.126028060913086,-2.9944591522216797,2.058767080307007,-11.609638214111328,-30.93620491027832,-11.402398109436035,18.00838279724121,-1.5650355815887451,0.9706641435623169,-8.158404350280762,-35.329429626464844,2.998805046081543,22.171894073486328,-0.22220206260681152,-0.8575014472007751,-0.14080433547496796,-19.41057777404785,3.716651678085327,21.200408935546875,0.9824233055114746,-0.4589121639728546,4.9191412925720215,-10.264012336730957,-0.7148557901382446,15.614364624023438,2.109621524810791,0.680350661277771,6.234638690948486,-11.463415145874023,-3.48993182182312,9.359525680541992,1.7988440990447998,0.6615665555000305,6.991652965545654,-8.900103569030762,-6.352345943450928,8.514859199523926,0.8830050230026245,-0.11957678198814392,8.304096221923828,-0.3158525824546814,-9.046066284179688,8.033902168273926,0.9237802624702454,-1.5233440399169922,8.075174331665039,9.56351375579834,-9.979865074157715,8.007580757141113,1.7052290439605713,-2.304792881011963,5.876977443695068,21.889541625976562,-7.746763229370117,6.321837425231934,2.5360050201416016,-1.4417935609817505,2.5966334342956543,31.916664123535156,-5.757131099700928,-1.6115660667419434,1.4466805458068848,-0.6299542784690857,-3.2201735973358154,23.21695899963379,-10.024730682373047,-2.2683959007263184,-1.65987229347229,-0.6356047987937927,-8.61716365814209,9.573084831237793,-14.6668062210083,5.179264545440674,-3.481929302215576,0.2075413018465042,-11.04733657836914,-3.5066816806793213,-16.896318435668945,12.243474960327148,-2.9651377201080322,1.8403828144073486,-11.133621215820312,-18.676578521728516,-9.448657989501953,14.913267135620117,-0.7371610999107361,2.014021158218384,-8.857844352722168,-25.464418411254883,2.053041934967041,14.46341609954834,0.503505289554596,0.5262600183486938,-3.5243842601776123,-19.90828514099121,7.4877400398254395,13.7647123336792,0.07223475724458694,-0.37400195002555847,1.0829105377197266,-12.599407196044922,2.692523717880249,13.506287574768066,0.23533566296100616,-0.17577634751796722,3.1671812534332275,-7.15812873840332,1.2059825658798218,13.317254066467285,0.541378915309906,0.9912807941436768,3.486968994140625,-5.752345561981201,-0.025722842663526535,12.795021057128906,0.7728966474533081,1.4804308414459229,3.341125011444092,-5.535795211791992,-0.6939185857772827,11.324631690979004,1.047938585281372,0.504421591758728,3.1500768661499023,-3.8075790405273438,-1.170688509941101,9.590433120727539,1.1400264501571655,-0.9051488637924194,2.8089089393615723,-1.1617153882980347,-0.9649057388305664,8.298309326171875,1.0164790153503418,-1.5331178903579712,2.341597318649292,0.7405785918235779,-0.35413774847984314,8.017151832580566,0.7661771774291992,-1.277012825012207,1.9559890031814575,1.832902193069458,0.49591249227523804,8.318648338317871,0.5734493136405945,-0.7099775671958923,1.727067470550537,2.2983062267303467,0.9272187948226929,8.124829292297363,0.46883872151374817,-0.378888875246048,1.5247185230255127,2.196611166000366,1.0923235416412354,8.13260555267334,0.235793799161911,-0.31230461597442627,1.3500111103057861,2.046461582183838,1.1724830865859985,8.544171333312988,0.049021899700164795,-0.46166107058525085,1.2090541124343872,2.23848557472229,1.1072787046432495,8.952147483825684,-0.011300998739898205,-0.5658134818077087,0.9925025701522827,2.386242389678955,1.0893324613571167,9.0514497756958,0.05253437161445618,-0.49861836433410645,0.6837103962898254,2.3850460052490234,1.1419745683670044,9.111868858337402,0.12461641430854797,-0.29626941680908203,0.35475972294807434,2.18045973777771,1.3543375730514526,9.248857498168945,0.22204934060573578,-0.09834922850131989,0.0435241162776947,1.4009976387023926,1.4727823734283447,8.990432739257812,0.29153522849082947,-0.020158538594841957,-0.21716243028640747,0.4821537733078003,1.597209095954895,8.609375953674316,0.1931859850883484,-0.007483093533664942,-0.3026835024356842,-0.2727817893028259,1.7276179790496826,8.642875671386719,0.006108647678047419,-0.04550942778587341,-0.2260199636220932,-0.625723123550415,1.92741858959198,9.065208435058594,-0.12980876863002777,-0.05971203371882439,0.0021380267571657896,-0.2356930375099182,2.022533416748047,9.55214786529541,-0.15225805342197418,-0.0027488914784044027,0.2228129357099533,0.5198407173156738,2.0853450298309326,9.912267684936523,-0.0720820426940918,0.10476330667734146,0.27748534083366394,0.7860422134399414,2.0865414142608643,9.81655502319336,0.015577051788568497,0.16997312009334564,0.17837251722812653,0.6352944374084473,2.0512471199035645,9.641879081726074,-0.011453714221715927,0.15378521382808685,0.06520981341600418,0.4289134442806244,1.9507486820220947,9.729216575622559,-0.064598947763443,0.09392046183347702,-0.008857538923621178,0.30987054109573364,1.9124635457992554,9.929018020629883,-0.08949168771505356,0.05299251899123192,-0.03329212963581085,0.25722843408584595,1.9202401638031006,10.02712345123291,-0.061391908675432205,0.016035201027989388,-0.04276053607463837,0.2787638306617737,1.8891334533691406,10.04985523223877,-0.017867794260382652,0.031154103577136993,-0.03390299528837204,0.3026920557022095,1.8915263414382935,10.100702285766602,0.04321868345141411,0.10201441496610641,-0.02519817277789116,0.3242274820804596,1.9298114776611328,10.03729248046875,0.11804962158203125,0.16905683279037476,-0.025350889191031456,0.1136590763926506,1.9782661199569702,9.722636222839355,0.12293653935194016,0.13011419773101807,-0.028099779039621353
