label,sub_label,user,file_id,watch_accel_x0,watch_accel_y0,watch_accel_z0,watch_gyros_x0,watch_gyros_y0,watch_gyros_z0,watch_accel_x1,watch_accel_y1,watch_accel_z1,watch_gyros_x1,watch_gyros_y1,watch_gyros_z1,watch_accel_x2,watch_accel_y2,watch_accel_z2,watch_gyros_x2,watch_gyros_y2,watch_gyros_z2,watch_accel_x3,watch_accel_y3,watch_accel_z3,watch_gyros_x3,watch_gyros_y3,watch_gyros_z3,watch_accel_x4,watch_accel_y4,watch_accel_z4,watch_gyros_x4,watch_gyros_y4,watch_gyros_z4,watch_accel_x5,watch_accel_y5,watch_accel_z5,watch_gyros_x5,watch_gyros_y5,watch_gyros_z5,watch_accel_x6,watch_accel_y6,watch_accel_z6,watch_gyros_x6,watch_gyros_y6,watch_gyros_z6,watch_accel_x7,watch_accel_y7,watch_accel_z7,watch_gyros_x7,watch_gyros_y7,watch_gyros_z7,watch_accel_x8,watch_accel_y8,watch_accel_z8,watch_gyros_x8,watch_gyros_y8,watch_gyros_z8,watch_accel_x9,watch_accel_y9,watch_accel_z9,watch_gyros_x9,watch_gyros_y9,watch_gyros_z9,watch_accel_x10,watch_accel_y10,watch_accel_z10,watch_gyros_x10,watch_gyros_y10,watch_gyros_z10,watch_accel_x11,watch_accel_y11,watch_accel_z11,watch_gyros_x11,watch_gyros_y11,watch_gyros_z11,watch_accel_x12,watch_accel_y12,watch_accel_z12,watch_gyros_x12,watch_gyros_y12,watch_gyros_z12,watch_accel_x13,watch_accel_y13,watch_accel_z13,watch_gyros_x13,watch_gyros_y13,watch_gyros_z13,watch_accel_x14,watch_accel_y14,watch_accel_z14,watch_gyros_x14,watch_gyros_y14,watch_gyros_z14,watch_accel_x15,watch_accel_y15,watch_accel_z15,watch_gyros_x15,watch_gyros_y15,watch_gyros_z15,watch_accel_x16,watch_accel_y16,watch_accel_z16,watch_gyros_x16,watch_gyros_y16,watch_gyros_z16,watch_accel_x17,watch_accel_y17,watch_accel_z17,watch_gyros_x17,watch_gyros_y17,watch_gyros_z17,watch_accel_x18,watch_accel_y18,watch_accel_z18,watch_gyros_x18,watch_gyros_y18,watch_gyros_z18,watch_accel_x19,watch_accel_y19,watch_accel_z19,watch_gyros_x19,watch_gyros_y19,watch_gyros_z19,watch_accel_x20,watch_accel_y20,watch_accel_z20,watch_gyros_x20,watch_gyros_y20,watch_gyros_z20,watch_accel_x21,watch_accel_y21,watch_accel_z21,watch_gyros_x21,watch_gyros_y21,watch_gyros_z21,watch_accel_x22,watch_accel_y22,watch_accel_z22,watch_gyros_x22,watch_gyros_y22,watch_gyros_z22,watch_accel_x23,watch_accel_y23,watch_accel_z23,watch_gyros_x23,watch_gyros_y23,watch_gyros_z23,watch_accel_x24,watch_accel_y24,watch_accel_z24,watch_gyros_x24,watch_gyros_y24,watch_gyros_z24,watch_accel_x25,watch_accel_y25,watch_accel_z25,watch_gyros_x25,watch_gyros_y25,watch_gyros_z25,watch_accel_x26,watch_accel_y26,watch_accel_z26,watch_gyros_x26,watch_gyros_y26,watch_gyros_z26,watch_accel_x27,watch_accel_y27,watch_accel_z27,watch_gyros_x27,watch_gyros_y27,watch_gyros_z27,watch_accel_x28,watch_accel_y28,watch_accel_z28,watch_gyros_x28,watch_gyros_y28,watch_gyros_z28,watch_accel_x29,watch_accel_y29,watch_accel_z29,watch_gyros_x29,watch_gyros_y29,watch_gyros_z29,watch_accel_x30,watch_accel_y30,watch_accel_z30,watch_gyros_x30,watch_gyros_y30,watch_gyros_z30,watch_accel_x31,watch_accel_y31,watch_accel_z31,watch_gyros_x31,watch_gyros_y31,watch_gyros_z31,watch_accel_x32,watch_accel_y32,watch_accel_z32,watch_gyros_x32,watch_gyros_y32,watch_gyros_z32,watch_accel_x33,watch_accel_y33,watch_accel_z33,watch_gyros_x33,watch_gyros_y33,watch_gyros_z33,watch_accel_x34,watch_accel_y34,watch_accel_z34,watch_gyros_x34,watch_gyros_y34,watch_gyros_z34,watch_accel_x35,watch_accel_y35,watch_accel_z35,watch_gyros_x35,watch_gyros_y35,watch_gyros_z35,watch_accel_x36,watch_accel_y36,watch_accel_z36,watch_gyros_x36,watch_gyros_y36,watch_gyros_z36,watch_accel_x37,watch_accel_y37,watch_accel_z37,watch_gyros_x37,watch_gyros_y37,watch_gyros_z37,watch_accel_x38,watch_accel_y38,watch_accel_z38,watch_gyros_x38,watch_gyros_y38,watch_gyros_z38,watch_accel_x39,watch_accel_y39,watch_accel_z39,watch_gyros_x39,watch_gyros_y39,watch_gyros_z39,watch_accel_x40,watch_accel_y40,watch_accel_z40,watch_gyros_x40,watch_gyros_y40,watch_gyros_z40,watch_accel_x41,watch_accel_y41,watch_accel_z41,watch_gyros_x41,watch_gyros_y41,watch_gyros_z41,watch_accel_x42,watch_accel_y42,watch_accel_z42,watch_gyros_x42,watch_gyros_y42,watch_gyros_z42,watch_accel_x43,watch_accel_y43,watch_accel_z43,watch_gyros_x43,watch_gyros_y43,watch_gyros_z43,watch_accel_x44,watch_accel_y44,watch_accel_z44,watch_gyros_x44,watch_gyros_y44,watch_gyros_z44,watch_accel_x45,watch_accel_y45,watch_accel_z45,watch_gyros_x45,watch_gyros_y45,watch_gyros_z45,watch_accel_x46,watch_accel_y46,watch_accel_z46,watch_gyros_x46,watch_gyros_y46,watch_gyros_z46,watch_accel_x47,watch_accel_y47,watch_accel_z47,watch_gyros_x47,watch_gyros_y47,watch_gyros_z47,watch_accel_x48,watch_accel_y48,watch_accel_z48,watch_gyros_x48,watch_gyros_y48,watch_gyros_z48
shake,10202,207,207_10202_260413224217727,-0.9672574996948242,-5.449203014373779,-10.153809547424316,1.6029103994369507,-2.185675859451294,-1.9022343158721924,-2.03507137298584,-4.946420669555664,-10.474632263183594,1.4001030921936035,-2.682920217514038,-2.2931880950927734,-2.382230758666992,-3.1076738834381104,-11.243170738220215,1.186300277709961,-3.2620203495025635,-2.6108381748199463,-2.118868589401245,-1.9991583824157715,-11.453861236572266,0.5436700582504272,-4.039041042327881,-2.9907963275909424,-0.8140285611152649,-2.5450363159179688,-10.630255699157715,0.21380282938480377,-4.440990447998047,-3.341432809829712,-0.3064578175544739,-2.454056739807129,-9.452308654785156,0.06719517707824707,-4.681671142578125,-3.8069121837615967,0.9816226959228516,-4.256890773773193,-7.965508937835693,-0.039095375686883926,-4.756196975708008,-3.9596285820007324,2.940079689025879,-5.975927352905273,-6.876147270202637,-0.05742133408784866,-4.697553634643555,-3.910759210586548,3.5218706130981445,-5.363011837005615,-6.0597243309021,0.02687807008624077,-4.299269676208496,-3.582113742828369,4.613626480102539,-6.502651691436768,-3.773261785507202,-0.23457226157188416,-4.123340606689453,-3.3267722129821777,5.063736438751221,-8.056488990783691,-1.9369091987609863,-0.7269296646118164,-3.782477617263794,-3.123964786529541,5.0254292488098145,-10.405200958251953,-0.5195417404174805,-1.4013248682022095,-3.21559476852417,-2.73301100730896,5.023035049438477,-13.421895027160645,-1.1276689767837524,-1.4624114036560059,-2.805093288421631,-2.3127357959747314,4.721365928649902,-15.061923027038574,-0.8643068075180054,-0.7513642311096191,-2.040289878845215,-1.5149458646774292,4.019864559173584,-14.379575729370117,-0.7709329724311829,-0.19058994948863983,-1.4636331796646118,-0.9590584635734558,3.004723072052002,-12.540828704833984,-1.113303780555725,-0.039095375686883926,-0.7195992469787598,-0.1820378452539444,2.2864625453948975,-11.487380027770996,-1.5945383310317993,-0.2382374405860901,-0.3078760802745819,0.18448130786418915,2.229001760482788,-12.050017356872559,-1.886630892753601,-0.4813618063926697,0.04153883829712868,0.45814892649650574,2.3104045391082764,-12.864046096801758,-1.7166426181793213,-0.41661009192466736,0.5424483418464661,0.8356636762619019,2.6647465229034424,-13.498509407043457,-1.4245500564575195,-0.05375614017248154,0.8600982427597046,1.1423180103302002,3.177105665206909,-14.013262748718262,-1.4676456451416016,0.3701843321323395,1.246165156364441,1.4575244188308716,3.0861260890960693,-12.828132629394531,-1.1875240802764893,0.9615018963813782,1.948660135269165,1.9523253440856934,2.3726539611816406,-11.645397186279297,-0.7589619159698486,1.1789699792861938,2.383596181869507,2.211332082748413,2.6384103298187256,-10.644620895385742,-0.8092401623725891,1.2034045457839966,2.8466320037841797,2.5277602672576904,2.7748796939849854,-9.425971984863281,-1.8842366933822632,0.9676105380058289,3.2033772468566895,2.744006633758545,2.4660277366638184,-9.394847869873047,-2.875436305999756,0.7855727076530457,3.5271358489990234,2.9138271808624268,2.1715409755706787,-9.35893440246582,-4.094084739685059,0.7721336483955383,3.886324644088745,3.009122133255005,1.7381904125213623,-8.238448143005371,-4.764461517333984,0.8478809595108032,4.097683906555176,3.0469958782196045,1.6879122257232666,-7.386112213134766,-5.5976433753967285,0.7061602473258972,4.1612138748168945,3.034778594970703,1.800439715385437,-7.599195957183838,-6.203376770019531,0.7232644557952881,4.118453502655029,2.8796188831329346,2.0422539710998535,-7.6351094245910645,-7.223306655883789,0.8869763612747192,4.073249340057373,2.715906858444214,2.5498247146606445,-5.841852188110352,-8.923190116882324,0.8881980776786804,3.9461894035339355,2.3994786739349365,2.456450939178467,-4.795586109161377,-10.876858711242676,0.3787364661693573,3.743382215499878,2.2149972915649414,2.0015525817871094,-4.422090530395508,-11.487380027770996,-0.05864306539297104,3.497814416885376,1.9156733751296997,1.9488801956176758,-5.264849662780762,-11.420342445373535,-0.5864306092262268,2.9211575984954834,1.5821410417556763,1.599326729774475,-4.929661273956299,-10.512939453125,-0.5253441333770752,2.5314254760742188,1.5137240886688232,1.2761094570159912,-4.584896087646484,-10.584765434265137,-0.740368664264679,1.9889771938323975,1.4172073602676392,0.5027823448181152,-3.9217023849487305,-10.216058731079102,-0.8857545852661133,1.6420058012008667,1.274264931678772,-0.5602431893348694,-3.8762125968933105,-9.097966194152832,-1.0103710889816284,1.2889256477355957,1.0897835493087769,-1.1276689767837524,-4.618414878845215,-8.604761123657227,-1.0128145217895508,0.7782423496246338,0.7562511563301086,-1.0414776802062988,-5.16429328918457,-8.274360656738281,-0.9089674949645996,0.5424483418464661,0.5864306092262268,-1.1252747774124146,-5.339069843292236,-8.396465301513672,-0.7086036801338196,0.384845107793808,0.3701843321323395,-1.5945383310317993,-5.961562156677246,-8.286332130432129,-0.485027015209198,0.34208452701568604,0.16859880089759827,-1.5921441316604614,-6.196194171905518,-8.08043098449707,-0.1820378452539444,0.2431243658065796,0.013439035043120384,-1.3551181554794312,-6.007051944732666,-7.5968017578125,0.08674286305904388,0.16371189057826996,-0.13316862285137177,-1.37906014919281,-6.375759124755859,-7.560888767242432,0.09529497474431992,0.1466076523065567,-0.1722639948129654,-1.3982137441635132,-6.36378812789917,-7.627926826477051,0.05864306539297104,0.10506882518529892,-0.1820378452539444,-1.4724340438842773,-6.308721542358398,-7.620744228363037,-0.05619960278272629,0.06841690838336945,-0.14905111491680145,-1.4748282432556152,-6.5912370681762695,-7.4770917892456055,-0.16737708449363708,-0.0012217304902151227,-0.10506882518529892
