label,sub_label,user,file_id,watch_accel_x0,watch_accel_y0,watch_accel_z0,watch_gyros_x0,watch_gyros_y0,watch_gyros_z0,watch_accel_x1,watch_accel_y1,watch_accel_z1,watch_gyros_x1,watch_gyros_y1,watch_gyros_z1,watch_accel_x2,watch_accel_y2,watch_accel_z2,watch_gyros_x2,watch_gyros_y2,watch_gyros_z2,watch_accel_x3,watch_accel_y3,watch_accel_z3,watch_gyros_x3,watch_gyros_y3,watch_gyros_z3,watch_accel_x4,watch_accel_y4,watch_accel_z4,watch_gyros_x4,watch_gyros_y4,watch_gyros_z4,watch_accel_x5,watch_accel_y5,watch_accel_z5,watch_gyros_x5,watch_gyros_y5,watch_gyros_z5,watch_accel_x6,watch_accel_y6,watch_accel_z6,watch_gyros_x6,watch_gyros_y6,watch_gyros_z6,watch_accel_x7,watch_accel_y7,watch_accel_z7,watch_gyros_x7,watch_gyros_y7,watch_gyros_z7,watch_accel_x8,watch_accel_y8,watch_accel_z8,watch_gyros_x8,watch_gyros_y8,watch_gyros_z8,watch_accel_x9,watch_accel_y9,watch_accel_z9,watch_gyros_x9,watch_gyros_y9,watch_gyros_z9,watch_accel_x10,watch_accel_y10,watch_accel_z10,watch_gyros_x10,watch_gyros_y10,watch_gyros_z10,watch_accel_x11,watch_accel_y11,watch_accel_z11,watch_gyros_x11,watch_gyros_y11,watch_gyros_z11,watch_accel_x12,watch_accel_y12,watch_accel_z12,watch_gyros_x12,watch_gyros_y12,watch_gyros_z12,watch_accel_x13,watch_accel_y13,watch_accel_z13,watch_gyros_x13,watch_gyros_y13,watch_gyros_z13,watch_accel_x14,watch_accel_y14,watch_accel_z14,watch_gyros_x14,watch_gyros_y14,watch_gyros_z14,watch_accel_x15,watch_accel_y15,watch_accel_z15,watch_gyros_x15,watch_gyros_y15,watch_gyros_z15,watch_accel_x16,watch_accel_y16,watch_accel_z16,watch_gyros_x16,watch_gyros_y16,watch_gyros_z16,watch_accel_x17,watch_accel_y17,watch_accel_z17,watch_gyros_x17,watch_gyros_y17,watch_gyros_z17,watch_accel_x18,watch_accel_y18,watch_accel_z18,watch_gyros_x18,watch_gyros_y18,watch_gyros_z18,watch_accel_x19,watch_accel_y19,watch_accel_z19,watch_gyros_x19,watch_gyros_y19,watch_gyros_z19,watch_accel_x20,watch_accel_y20,watch_accel_z20,watch_gyros_x20,watch_gyros_y20,watch_gyros_z20,watch_accel_x21,watch_accel_y21,watch_accel_z21,watch_gyros_x21,watch_gyros_y21,watch_gyros_z21,watch_accel_x22,watch_accel_y22,watch_accel_z22,watch_gyros_x22,watch_gyros_y22,watch_gyros_z22,watch_accel_x23,watch_accel_y23,watch_accel_z23,watch_gyros_x23,watch_gyros_y23,watch_gyros_z23,watch_accel_x24,watch_accel_y24,watch_accel_z24,watch_gyros_x24,watch_gyros_y24,watch_gyros_z24,watch_accel_x25,watch_accel_y25,watch_accel_z25,watch_gyros_x25,watch_gyros_y25,watch_gyros_z25,watch_accel_x26,watch_accel_y26,watch_accel_z26,watch_gyros_x26,watch_gyros_y26,watch_gyros_z26,watch_accel_x27,watch_accel_y27,watch_accel_z27,watch_gyros_x27,watch_gyros_y27,watch_gyros_z27,watch_accel_x28,watch_accel_y28,watch_accel_z28,watch_gyros_x28,watch_gyros_y28,watch_gyros_z28,watch_accel_x29,watch_accel_y29,watch_accel_z29,watch_gyros_x29,watch_gyros_y29,watch_gyros_z29,watch_accel_x30,watch_accel_y30,watch_accel_z30,watch_gyros_x30,watch_gyros_y30,watch_gyros_z30,watch_accel_x31,watch_accel_y31,watch_accel_z31,watch_gyros_x31,watch_gyros_y31,watch_gyros_z31,watch_accel_x32,watch_accel_y32,watch_accel_z32,watch_gyros_x32,watch_gyros_y32,watch_gyros_z32,watch_accel_x33,watch_accel_y33,watch_accel_z33,watch_gyros_x33,watch_gyros_y33,watch_gyros_z33,watch_accel_x34,watch_accel_y34,watch_accel_z34,watch_gyros_x34,watch_gyros_y34,watch_gyros_z34,watch_accel_x35,watch_accel_y35,watch_accel_z35,watch_gyros_x35,watch_gyros_y35,watch_gyros_z35,watch_accel_x36,watch_accel_y36,watch_accel_z36,watch_gyros_x36,watch_gyros_y36,watch_gyros_z36,watch_accel_x37,watch_accel_y37,watch_accel_z37,watch_gyros_x37,watch_gyros_y37,watch_gyros_z37,watch_accel_x38,watch_accel_y38,watch_accel_z38,watch_gyros_x38,watch_gyros_y38,watch_gyros_z38,watch_accel_x39,watch_accel_y39,watch_accel_z39,watch_gyros_x39,watch_gyros_y39,watch_gyros_z39,watch_accel_x40,watch_accel_y40,watch_accel_z40,watch_gyros_x40,watch_gyros_y40,watch_gyros_z40,watch_accel_x41,watch_accel_y41,watch_accel_z41,watch_gyros_x41,watch_gyros_y41,watch_gyros_z41,watch_accel_x42,watch_accel_y42,watch_accel_z42,watch_gyros_x42,watch_gyros_y42,watch_gyros_z42,watch_accel_x43,watch_accel_y43,watch_accel_z43,watch_gyros_x43,watch_gyros_y43,watch_gyros_z43,watch_accel_x44,watch_accel_y44,watch_accel_z44,watch_gyros_x44,watch_gyros_y44,watch_gyros_z44,watch_accel_x45,watch_accel_y45,watch_accel_z45,watch_gyros_x45,watch_gyros_y45,watch_gyros_z45,watch_accel_x46,watch_accel_y46,watch_accel_z46,watch_gyros_x46,watch_gyros_y46,watch_gyros_z46,watch_accel_x47,watch_accel_y47,watch_accel_z47,watch_gyros_x47,watch_gyros_y47,watch_gyros_z47,watch_accel_x48,watch_accel_y48,watch_accel_z48,watch_gyros_x48,watch_gyros_y48,watch_gyros_z48,watch_accel_x49,watch_accel_y49,watch_accel_z49,watch_gyros_x49,watch_gyros_y49,watch_gyros_z49,watch_accel_x50,watch_accel_y50,watch_accel_z50,watch_gyros_x50,watch_gyros_y50,watch_gyros_z50,watch_accel_x51,watch_accel_y51,watch_accel_z51,watch_gyros_x51,watch_gyros_y51,watch_gyros_z51,watch_accel_x52,watch_accel_y52,watch_accel_z52,watch_gyros_x52,watch_gyros_y52,watch_gyros_z52
shake,10202,207,207_10202_260413224228759,-0.828393816947937,-5.4444146156311035,-8.619126319885254,0.9480628371238708,-3.302337408065796,-2.1001546382904053,-0.48602294921875,-4.7405195236206055,-8.269572257995605,0.6316346526145935,-3.9938368797302246,-2.649933338165283,-0.08379705995321274,-4.352658748626709,-8.125920295715332,0.2993239760398865,-4.289495944976807,-2.915048837661743,-0.009576806798577309,-3.428496837615967,-7.6111674308776855,-0.23335053026676178,-4.57293701171875,-3.2058207988739014,0.9481038451194763,-3.885789394378662,-6.385335922241211,-0.598647952079773,-4.714657783508301,-3.3536500930786133,2.2912509441375732,-5.894524574279785,-3.7038300037384033,-0.96883225440979,-4.724431991577148,-3.4245104789733887,3.380612850189209,-10.429142951965332,-1.7741034030914307,-1.292590856552124,-4.338365077972412,-3.3316590785980225,4.4077253341674805,-13.053187370300293,-0.5722141861915588,-0.911410927772522,-3.9205331802368164,-3.0860912799835205,4.580107688903809,-12.993332862854004,0.9241618514060974,-0.37262779474258423,-3.302337408065796,-2.609616279602051,4.091690540313721,-12.887988090515137,2.0853497982025146,-0.09285151958465576,-2.409252643585205,-1.7201964855194092,4.4077253341674805,-13.627796173095703,2.434903144836426,-0.22968533635139465,-1.9217820167541504,-1.0751228332519531,4.474762916564941,-14.369998931884766,2.097320795059204,-0.4911356568336487,-1.0250319242477417,-0.23945917189121246,4.278438568115234,-14.79377269744873,1.3503297567367554,-0.5571091175079346,-0.43127086758613586,0.26511552929878235,3.7708675861358643,-14.192827224731445,0.7110779285430908,-0.5009095072746277,0.13927727937698364,0.7159340381622314,3.0358476638793945,-13.182474136352539,0.20350714027881622,-0.28588494658470154,0.8710938692092896,1.205847978591919,2.7461493015289307,-12.844892501831055,-0.0454898327589035,-0.1368338167667389,1.2522737979888916,1.3854423761367798,2.5282769203186035,-12.339715957641602,-0.5434837937355042,-0.006108652334660292,1.5906931161880493,1.5247195959091187,2.185906171798706,-10.704475402832031,-1.3694833517074585,0.2480112910270691,2.1306979656219482,1.7165313959121704,1.6160861253738403,-9.804255485534668,-2.5043349266052246,0.304210901260376,2.4837779998779297,1.8949040174484253,0.9145850539207458,-9.469067573547363,-3.2992098331451416,0.2223549485206604,2.9773571491241455,2.1514673233032227,0.751779317855835,-8.580819129943848,-4.2329487800598145,0.0659734457731247,3.2449162006378174,2.2565362453460693,0.9552865028381348,-6.957550048828125,-4.6471452713012695,-0.20891591906547546,3.489262342453003,2.3652701377868652,0.7876923680305481,-5.758055210113525,-4.400542736053467,-0.49846604466438293,3.7702603340148926,2.630385637283325,0.5219359993934631,-5.6191911697387695,-4.216189384460449,-0.34574973583221436,3.617543935775757,2.7733283042907715,0.4357447028160095,-5.882553577423096,-3.3063924312591553,-0.14416420459747314,3.2278120517730713,2.9126055240631104,0.4908113479614258,-6.63433313369751,-5.080495834350586,-0.13072516024112701,2.984687566757202,2.9443705081939697,1.5753847360610962,-7.613561630249023,-7.623138427734375,-0.5057964324951172,2.7513370513916016,2.8148670196533203,1.9345149993896484,-6.2632317543029785,-10.793061256408691,-0.8539896011352539,2.5338690280914307,2.4104743003845215,1.173158884048462,-6.756437301635742,-10.649409294128418,-0.5155702829360962,2.3994786739349365,2.122145891189575,0.1173158809542656,-6.931213855743408,-9.169792175292969,0.17837265133857727,2.2003366947174072,1.89979088306427,0.011971008032560349,-6.215347766876221,-8.588001251220703,0.6230825781822205,1.7959438562393188,1.5369369983673096,-0.15562310814857483,-6.3063273429870605,-8.418013572692871,0.30543261766433716,1.5357152223587036,1.2229522466659546,-0.5482721924781799,-5.746084213256836,-8.841787338256836,0.04642575979232788,1.1899654865264893,0.7709119319915771,-0.2298433631658554,-6.2201361656188965,-8.705317497253418,-0.02321287989616394,0.8991936445236206,0.5461135506629944,0.2059013396501541,-6.904877662658691,-7.8960771560668945,0.03420845419168472,0.685390830039978,0.41661009192466736,0.2777273952960968,-6.823474884033203,-7.003039836883545,0.24678955972194672,0.5119050741195679,0.24923302233219147,-0.3208230137825012,-6.648698329925537,-6.461950302124023,0.39217549562454224,0.43127086758613586,0.18936823308467865,-1.1635819673538208,-6.653486728668213,-6.5912370681762695,0.42760565876960754,0.31031954288482666,0.12339477986097336,-1.8315643072128296,-6.404489517211914,-6.868964672088623,0.3176499307155609,0.2528982162475586,0.07819075137376785,-2.231395959854126,-6.53377628326416,-6.447585105895996,0.14416420459747314,0.20402899384498596,0.05375614017248154,-2.2026655673980713,-6.971915245056152,-5.853823184967041,-0.05864306539297104,0.1014036312699318,0.030543262138962746,-2.1930887699127197,-7.486668586730957,-5.585672378540039,-0.06108652427792549,0.05864306539297104,0.059864792972803116,-1.9776105880737305,-7.508216381072998,-6.035782337188721,-0.00855211354792118,0.05009094998240471,0.08918632566928864,-1.821987509727478,-7.673416614532471,-6.66785192489624,0.02321287989616394,0.09773843735456467,0.12339477986097336,-2.0829553604125977,-7.702147006988525,-6.627150535583496,-0.0403171069920063,0.12095131725072861,0.10384709388017654,-2.118868589401245,-7.8098859786987305,-6.1315507888793945,-0.10751228034496307,0.07941248267889023,0.07208210229873657,-2.10210919380188,-8.123526573181152,-5.758055210113525,-0.1869247704744339,0.010995574295520782,0.04764748737215996,-2.1308395862579346,-8.276755332946777,-5.868188381195068,-0.1869247704744339,-0.03176499158143997,0.039095375686883926,-1.9728221893310547,-8.078036308288574,-6.555324077606201,-0.051312681287527084,-0.08796459436416626,0.00733038317412138,-1.9249382019042969,-7.879317760467529,-6.737283706665039,0.0708603709936142,-0.08796459436416626,-0.01710422709584236,-1.9560627937316895,-7.7883381843566895,-6.452373504638672,0.14049901068210602,-0.09285151958465576,-0.07208210229873657,-1.922544002532959,-7.886500358581543,-5.863399982452393,0.1563815027475357,-0.1111774742603302,-0.09773843735456467,-1.86508309841156,-7.90086555480957,-5.714959621429443,0.13439035415649414,-0.11484266817569733,-0.10018189996480942
