label,sub_label,user,file_id,watch_accel_x0,watch_accel_y0,watch_accel_z0,watch_gyros_x0,watch_gyros_y0,watch_gyros_z0,watch_accel_x1,watch_accel_y1,watch_accel_z1,watch_gyros_x1,watch_gyros_y1,watch_gyros_z1,watch_accel_x2,watch_accel_y2,watch_accel_z2,watch_gyros_x2,watch_gyros_y2,watch_gyros_z2,watch_accel_x3,watch_accel_y3,watch_accel_z3,watch_gyros_x3,watch_gyros_y3,watch_gyros_z3,watch_accel_x4,watch_accel_y4,watch_accel_z4,watch_gyros_x4,watch_gyros_y4,watch_gyros_z4,watch_accel_x5,watch_accel_y5,watch_accel_z5,watch_gyros_x5,watch_gyros_y5,watch_gyros_z5,watch_accel_x6,watch_accel_y6,watch_accel_z6,watch_gyros_x6,watch_gyros_y6,watch_gyros_z6,watch_accel_x7,watch_accel_y7,watch_accel_z7,watch_gyros_x7,watch_gyros_y7,watch_gyros_z7,watch_accel_x8,watch_accel_y8,watch_accel_z8,watch_gyros_x8,watch_gyros_y8,watch_gyros_z8,watch_accel_x9,watch_accel_y9,watch_accel_z9,watch_gyros_x9,watch_gyros_y9,watch_gyros_z9,watch_accel_x10,watch_accel_y10,watch_accel_z10,watch_gyros_x10,watch_gyros_y10,watch_gyros_z10,watch_accel_x11,watch_accel_y11,watch_accel_z11,watch_gyros_x11,watch_gyros_y11,watch_gyros_z11,watch_accel_x12,watch_accel_y12,watch_accel_z12,watch_gyros_x12,watch_gyros_y12,watch_gyros_z12,watch_accel_x13,watch_accel_y13,watch_accel_z13,watch_gyros_x13,watch_gyros_y13,watch_gyros_z13,watch_accel_x14,watch_accel_y14,watch_accel_z14,watch_gyros_x14,watch_gyros_y14,watch_gyros_z14,watch_accel_x15,watch_accel_y15,watch_accel_z15,watch_gyros_x15,watch_gyros_y15,watch_gyros_z15,watch_accel_x16,watch_accel_y16,watch_accel_z16,watch_gyros_x16,watch_gyros_y16,watch_gyros_z16,watch_accel_x17,watch_accel_y17,watch_accel_z17,watch_gyros_x17,watch_gyros_y17,watch_gyros_z17,watch_accel_x18,watch_accel_y18,watch_accel_z18,watch_gyros_x18,watch_gyros_y18,watch_gyros_z18,watch_accel_x19,watch_accel_y19,watch_accel_z19,watch_gyros_x19,watch_gyros_y19,watch_gyros_z19,watch_accel_x20,watch_accel_y20,watch_accel_z20,watch_gyros_x20,watch_gyros_y20,watch_gyros_z20,watch_accel_x21,watch_accel_y21,watch_accel_z21,watch_gyros_x21,watch_gyros_y21,watch_gyros_z21,watch_accel_x22,watch_accel_y22,watch_accel_z22,watch_gyros_x22,watch_gyros_y22,watch_gyros_z22,watch_accel_x23,watch_accel_y23,watch_accel_z23,watch_gyros_x23,watch_gyros_y23,watch_gyros_z23,watch_accel_x24,watch_accel_y24,watch_accel_z24,watch_gyros_x24,watch_gyros_y24,watch_gyros_z24,watch_accel_x25,watch_accel_y25,watch_accel_z25,watch_gyros_x25,watch_gyros_y25,watch_gyros_z25,watch_accel_x26,watch_accel_y26,watch_accel_z26,watch_gyros_x26,watch_gyros_y26,watch_gyros_z26,watch_accel_x27,watch_accel_y27,watch_accel_z27,watch_gyros_x27,watch_gyros_y27,watch_gyros_z27,watch_accel_x28,watch_accel_y28,watch_accel_z28,watch_gyros_x28,watch_gyros_y28,watch_gyros_z28,watch_accel_x29,watch_accel_y29,watch_accel_z29,watch_gyros_x29,watch_gyros_y29,watch_gyros_z29,watch_accel_x30,watch_accel_y30,watch_accel_z30,watch_gyros_x30,watch_gyros_y30,watch_gyros_z30,watch_accel_x31,watch_accel_y31,watch_accel_z31,watch_gyros_x31,watch_gyros_y31,watch_gyros_z31,watch_accel_x32,watch_accel_y32,watch_accel_z32,watch_gyros_x32,watch_gyros_y32,watch_gyros_z32,watch_accel_x33,watch_accel_y33,watch_accel_z33,watch_gyros_x33,watch_gyros_y33,watch_gyros_z33,watch_accel_x34,watch_accel_y34,watch_accel_z34,watch_gyros_x34,watch_gyros_y34,watch_gyros_z34,watch_accel_x35,watch_accel_y35,watch_accel_z35,watch_gyros_x35,watch_gyros_y35,watch_gyros_z35,watch_accel_x36,watch_accel_y36,watch_accel_z36,watch_gyros_x36,watch_gyros_y36,watch_gyros_z36,watch_accel_x37,watch_accel_y37,watch_accel_z37,watch_gyros_x37,watch_gyros_y37,watch_gyros_z37,watch_accel_x38,watch_accel_y38,watch_accel_z38,watch_gyros_x38,watch_gyros_y38,watch_gyros_z38,watch_accel_x39,watch_accel_y39,watch_accel_z39,watch_gyros_x39,watch_gyros_y39,watch_gyros_z39,watch_accel_x40,watch_accel_y40,watch_accel_z40,watch_gyros_x40,watch_gyros_y40,watch_gyros_z40,watch_accel_x41,watch_accel_y41,watch_accel_z41,watch_gyros_x41,watch_gyros_y41,watch_gyros_z41,watch_accel_x42,watch_accel_y42,watch_accel_z42,watch_gyros_x42,watch_gyros_y42,watch_gyros_z42,watch_accel_x43,watch_accel_y43,watch_accel_z43,watch_gyros_x43,watch_gyros_y43,watch_gyros_z43,watch_accel_x44,watch_accel_y44,watch_accel_z44,watch_gyros_x44,watch_gyros_y44,watch_gyros_z44,watch_accel_x45,watch_accel_y45,watch_accel_z45,watch_gyros_x45,watch_gyros_y45,watch_gyros_z45,watch_accel_x46,watch_accel_y46,watch_accel_z46,watch_gyros_x46,watch_gyros_y46,watch_gyros_z46,watch_accel_x47,watch_accel_y47,watch_accel_z47,watch_gyros_x47,watch_gyros_y47,watch_gyros_z47,watch_accel_x48,watch_accel_y48,watch_accel_z48,watch_gyros_x48,watch_gyros_y48,watch_gyros_z48,watch_accel_x49,watch_accel_y49,watch_accel_z49,watch_gyros_x49,watch_gyros_y49,watch_gyros_z49,watch_accel_x50,watch_accel_y50,watch_accel_z50,watch_gyros_x50,watch_gyros_y50,watch_gyros_z50,watch_accel_x51,watch_accel_y51,watch_accel_z51,watch_gyros_x51,watch_gyros_y51,watch_gyros_z51,watch_accel_x52,watch_accel_y52,watch_accel_z52,watch_gyros_x52,watch_gyros_y52,watch_gyros_z52,watch_accel_x53,watch_accel_y53,watch_accel_z53,watch_gyros_x53,watch_gyros_y53,watch_gyros_z53
random,999,114,114_999_260411001225571,7.987056732177734,-5.288791656494141,-2.33913516998291,-3.2730159759521484,-0.05619960278272629,0.36163222789764404,8.128314971923828,-6.287173748016357,-2.1284453868865967,-1.4245377779006958,0.1319468915462494,0.34208452701568604,8.35097599029541,-7.936778545379639,-3.3662476539611816,1.9706512689590454,0.24068090319633484,0.24678955972194672,8.935160636901855,-8.810662269592285,-4.754884719848633,4.4788641929626465,0.5106833577156067,-0.08552113175392151,9.643844604492188,-7.158663272857666,-7.7763671875,6.267477512359619,0.9553932547569275,-0.6279694437980652,9.006986618041992,-5.20978307723999,-5.03021764755249,9.83981704711914,2.0305161476135254,-1.0250319242477417,7.965508937835693,-0.9528923034667969,-2.4229321479797363,14.031574249267578,2.1710150241851807,-1.587027907371521,7.539340972900391,3.7205893993377686,-0.021547814831137657,16.43593978881836,1.8777997493743896,-1.7018705606460571,9.081207275390625,10.74996566772461,3.818751811981201,15.089592933654785,1.8118263483047485,-1.5943583250045776,9.75637149810791,14.30774974822998,12.320562362670898,6.9528679847717285,2.5338690280914307,-0.1869247704744339,2.054224967956543,3.512293815612793,10.086771965026855,-2.934596538543701,-0.1062905490398407,0.9101892113685608,2.762908697128296,-2.6886885166168213,3.1699230670928955,-7.619933128356934,-1.1740829944610596,0.8063421249389648,9.500192642211914,-1.1348515748977661,3.691859006881714,-10.390817642211914,-1.1545352935791016,-0.17348572611808777,13.230358123779297,-2.233790159225464,5.370194435119629,-10.473895072937012,-0.6279694437980652,-0.00366519158706069,9.617507934570312,-1.644816517829895,5.257667064666748,-12.743870735168457,-0.2919935882091522,1.076344609260559,7.122750282287598,-2.760514497756958,3.1220390796661377,-12.571606636047363,-0.46547931432724,0.4251621961593628,6.742072105407715,-5.858611583709717,-1.2401964664459229,-8.878315925598145,-0.8881980776786804,0.3090978264808655,6.72531270980835,-9.837775230407715,-4.81473970413208,0.0354301854968071,-0.10751228034496307,0.4789183437824249,6.801927089691162,-5.513846397399902,-7.6566572189331055,8.273558616638184,0.3933972120285034,0.08185594528913498,8.635885238647461,-0.7757213711738586,-3.2968156337738037,12.966225624084473,1.351233959197998,-0.24434609711170197,10.986991882324219,1.8818424940109253,6.007051944732666,12.207530975341797,1.6297885179519653,-0.34574973583221436,9.919178009033203,1.400607943534851,10.299856185913086,10.633942604064941,1.1850786209106445,-0.5705481171607971,8.83939266204834,1.4772224426269531,13.443442344665527,6.855129718780518,0.6023131608963013,-0.00366519158706069,6.926425457000732,0.5985504388809204,12.612654685974121,0.4495968222618103,-0.304210901260376,-0.09285151958465576,5.032611846923828,-3.845088005065918,5.4228668212890625,-5.944940567016602,-1.4159855842590332,-0.08796459436416626,6.607996463775635,-3.6176388263702393,3.002328872680664,-9.64067554473877,-1.538158655166626,-0.29565876722335815,9.01895809173584,0.2968810200691223,5.485116004943848,-11.9033203125,-1.4001030921936035,-0.23457226157188416,9.210494041442871,2.5665841102600098,5.693411827087402,-11.823907852172852,-1.2082914113998413,-0.04642575979232788,7.287950038909912,1.843535304069519,3.134010076522827,-10.867292404174805,-1.0726794004440308,0.16859880089759827,5.322310447692871,-2.382230758666992,-1.5298948287963867,-7.982787132263184,-1.1166616678237915,0.6939429044723511,6.629544734954834,-6.799532890319824,-5.066130638122559,-3.894876718521118,-1.2229522466659546,0.740368664264679,9.08838939666748,-7.826645374298096,-5.841852188110352,-0.22602014243602753,-0.9040805697441101,0.5852088928222656,10.460267066955566,-6.27280855178833,-3.045424461364746,3.0641000270843506,-0.14905111491680145,0.21135938167572021,9.801861763000488,-3.6942532062530518,0.0694318488240242,3.230255365371704,0.23579397797584534,-0.03298672288656235,9.157821655273438,-3.641580820083618,1.4269442558288574,1.166752576828003,0.0,0.009773843921720982,8.78193187713623,-4.879383087158203,0.4118026793003082,-1.0690141916275024,-0.3982841372489929,-0.0757472887635231,8.686163902282715,-5.774814605712891,-0.9888052940368652,-1.7397441864013672,-0.3787364661693573,-0.16004669666290283,8.202534675598145,-5.872976779937744,-1.5634137392044067,-1.321912407875061,-0.16859880089759827,-0.2626720666885376,7.647080421447754,-5.499481201171875,-1.3120225667953491,-0.1820378452539444,0.09040805697441101,-0.294437050819397,7.891288757324219,-4.8722004890441895,-0.5482721924781799,0.750142514705658,0.1771509200334549,-0.2565633952617645,8.238448143005371,-4.182670593261719,0.15801730751991272,0.9468411207199097,0.21868975460529327,-0.19058994948863983,8.291120529174805,-4.173093795776367,0.7254431247711182,0.6988298296928406,0.1918116807937622,-0.11972958594560623,8.310274124145508,-4.4077253341674805,0.751779317855835,0.08796459436416626,0.0659734457731247,-0.07819075137376785,8.382100105285645,-4.489128112792969,0.4644751250743866,-0.3396410644054413,-0.03298672288656235,-0.02932153269648552,8.56645393371582,-4.654327869415283,-0.038307227194309235,-0.4153883755207062,-0.06108652427792549,-0.03298672288656235,8.686163902282715,-4.558559894561768,-0.05746084079146385,-0.2431243658065796,-0.013439035043120384,-0.0354301854968071,8.604761123657227,-4.455609321594238,-0.090979665517807,0.00366519158706069,0.012217304669320583,-0.04153883829712868,8.47786808013916,-4.393360137939453,-0.05267243832349777,0.17104226350784302,0.02321287989616394,-0.02076941914856434,8.530540466308594,-4.73573112487793,-0.10773907601833344,0.2981022298336029,0.015882495790719986,-0.021991148591041565,8.561665534973145,-4.819528102874756,-0.033518824726343155,0.4251621961593628,0.030543262138962746,-0.036651913076639175,8.60236644744873,-4.955997467041016,-0.016759412363171577,0.5241223573684692,0.04764748737215996,-0.07208210229873657,8.585607528686523,-4.462791919708252,0.545877993106842,0.3677408695220947,0.0708603709936142,-0.09651670604944229,8.494627952575684,-4.220977783203125,0.586579442024231,0.1417207419872284,0.0354301854968071,-0.0806342139840126,8.4108304977417,-4.333505153656006,0.3232172429561615,-0.15271630883216858,0.006108652334660292,-0.05497787147760391
