label,sub_label,user,file_id,mobile_accel_x0,mobile_accel_y0,mobile_accel_z0,mobile_gyros_x0,mobile_gyros_y0,mobile_gyros_z0,mobile_accel_x1,mobile_accel_y1,mobile_accel_z1,mobile_gyros_x1,mobile_gyros_y1,mobile_gyros_z1,mobile_accel_x2,mobile_accel_y2,mobile_accel_z2,mobile_gyros_x2,mobile_gyros_y2,mobile_gyros_z2,mobile_accel_x3,mobile_accel_y3,mobile_accel_z3,mobile_gyros_x3,mobile_gyros_y3,mobile_gyros_z3,mobile_accel_x4,mobile_accel_y4,mobile_accel_z4,mobile_gyros_x4,mobile_gyros_y4,mobile_gyros_z4,mobile_accel_x5,mobile_accel_y5,mobile_accel_z5,mobile_gyros_x5,mobile_gyros_y5,mobile_gyros_z5,mobile_accel_x6,mobile_accel_y6,mobile_accel_z6,mobile_gyros_x6,mobile_gyros_y6,mobile_gyros_z6,mobile_accel_x7,mobile_accel_y7,mobile_accel_z7,mobile_gyros_x7,mobile_gyros_y7,mobile_gyros_z7,mobile_accel_x8,mobile_accel_y8,mobile_accel_z8,mobile_gyros_x8,mobile_gyros_y8,mobile_gyros_z8,mobile_accel_x9,mobile_accel_y9,mobile_accel_z9,mobile_gyros_x9,mobile_gyros_y9,mobile_gyros_z9,mobile_accel_x10,mobile_accel_y10,mobile_accel_z10,mobile_gyros_x10,mobile_gyros_y10,mobile_gyros_z10,mobile_accel_x11,mobile_accel_y11,mobile_accel_z11,mobile_gyros_x11,mobile_gyros_y11,mobile_gyros_z11,mobile_accel_x12,mobile_accel_y12,mobile_accel_z12,mobile_gyros_x12,mobile_gyros_y12,mobile_gyros_z12,mobile_accel_x13,mobile_accel_y13,mobile_accel_z13,mobile_gyros_x13,mobile_gyros_y13,mobile_gyros_z13,mobile_accel_x14,mobile_accel_y14,mobile_accel_z14,mobile_gyros_x14,mobile_gyros_y14,mobile_gyros_z14,mobile_accel_x15,mobile_accel_y15,mobile_accel_z15,mobile_gyros_x15,mobile_gyros_y15,mobile_gyros_z15,mobile_accel_x16,mobile_accel_y16,mobile_accel_z16,mobile_gyros_x16,mobile_gyros_y16,mobile_gyros_z16,mobile_accel_x17,mobile_accel_y17,mobile_accel_z17,mobile_gyros_x17,mobile_gyros_y17,mobile_gyros_z17,mobile_accel_x18,mobile_accel_y18,mobile_accel_z18,mobile_gyros_x18,mobile_gyros_y18,mobile_gyros_z18,mobile_accel_x19,mobile_accel_y19,mobile_accel_z19,mobile_gyros_x19,mobile_gyros_y19,mobile_gyros_z19,mobile_accel_x20,mobile_accel_y20,mobile_accel_z20,mobile_gyros_x20,mobile_gyros_y20,mobile_gyros_z20,mobile_accel_x21,mobile_accel_y21,mobile_accel_z21,mobile_gyros_x21,mobile_gyros_y21,mobile_gyros_z21,mobile_accel_x22,mobile_accel_y22,mobile_accel_z22,mobile_gyros_x22,mobile_gyros_y22,mobile_gyros_z22,mobile_accel_x23,mobile_accel_y23,mobile_accel_z23,mobile_gyros_x23,mobile_gyros_y23,mobile_gyros_z23,mobile_accel_x24,mobile_accel_y24,mobile_accel_z24,mobile_gyros_x24,mobile_gyros_y24,mobile_gyros_z24,mobile_accel_x25,mobile_accel_y25,mobile_accel_z25,mobile_gyros_x25,mobile_gyros_y25,mobile_gyros_z25,mobile_accel_x26,mobile_accel_y26,mobile_accel_z26,mobile_gyros_x26,mobile_gyros_y26,mobile_gyros_z26,mobile_accel_x27,mobile_accel_y27,mobile_accel_z27,mobile_gyros_x27,mobile_gyros_y27,mobile_gyros_z27,mobile_accel_x28,mobile_accel_y28,mobile_accel_z28,mobile_gyros_x28,mobile_gyros_y28,mobile_gyros_z28,mobile_accel_x29,mobile_accel_y29,mobile_accel_z29,mobile_gyros_x29,mobile_gyros_y29,mobile_gyros_z29,mobile_accel_x30,mobile_accel_y30,mobile_accel_z30,mobile_gyros_x30,mobile_gyros_y30,mobile_gyros_z30,mobile_accel_x31,mobile_accel_y31,mobile_accel_z31,mobile_gyros_x31,mobile_gyros_y31,mobile_gyros_z31,mobile_accel_x32,mobile_accel_y32,mobile_accel_z32,mobile_gyros_x32,mobile_gyros_y32,mobile_gyros_z32,mobile_accel_x33,mobile_accel_y33,mobile_accel_z33,mobile_gyros_x33,mobile_gyros_y33,mobile_gyros_z33,mobile_accel_x34,mobile_accel_y34,mobile_accel_z34,mobile_gyros_x34,mobile_gyros_y34,mobile_gyros_z34,mobile_accel_x35,mobile_accel_y35,mobile_accel_z35,mobile_gyros_x35,mobile_gyros_y35,mobile_gyros_z35,mobile_accel_x36,mobile_accel_y36,mobile_accel_z36,mobile_gyros_x36,mobile_gyros_y36,mobile_gyros_z36,mobile_accel_x37,mobile_accel_y37,mobile_accel_z37,mobile_gyros_x37,mobile_gyros_y37,mobile_gyros_z37,mobile_accel_x38,mobile_accel_y38,mobile_accel_z38,mobile_gyros_x38,mobile_gyros_y38,mobile_gyros_z38,mobile_accel_x39,mobile_accel_y39,mobile_accel_z39,mobile_gyros_x39,mobile_gyros_y39,mobile_gyros_z39,mobile_accel_x40,mobile_accel_y40,mobile_accel_z40,mobile_gyros_x40,mobile_gyros_y40,mobile_gyros_z40,mobile_accel_x41,mobile_accel_y41,mobile_accel_z41,mobile_gyros_x41,mobile_gyros_y41,mobile_gyros_z41,mobile_accel_x42,mobile_accel_y42,mobile_accel_z42,mobile_gyros_x42,mobile_gyros_y42,mobile_gyros_z42,mobile_accel_x43,mobile_accel_y43,mobile_accel_z43,mobile_gyros_x43,mobile_gyros_y43,mobile_gyros_z43,mobile_accel_x44,mobile_accel_y44,mobile_accel_z44,mobile_gyros_x44,mobile_gyros_y44,mobile_gyros_z44,mobile_accel_x45,mobile_accel_y45,mobile_accel_z45,mobile_gyros_x45,mobile_gyros_y45,mobile_gyros_z45,mobile_accel_x46,mobile_accel_y46,mobile_accel_z46,mobile_gyros_x46,mobile_gyros_y46,mobile_gyros_z46,mobile_accel_x47,mobile_accel_y47,mobile_accel_z47,mobile_gyros_x47,mobile_gyros_y47,mobile_gyros_z47,mobile_accel_x48,mobile_accel_y48,mobile_accel_z48,mobile_gyros_x48,mobile_gyros_y48,mobile_gyros_z48,mobile_accel_x49,mobile_accel_y49,mobile_accel_z49,mobile_gyros_x49,mobile_gyros_y49,mobile_gyros_z49,mobile_accel_x50,mobile_accel_y50,mobile_accel_z50,mobile_gyros_x50,mobile_gyros_y50,mobile_gyros_z50
shake,10201,208,208_10201_260414155045357,7.854440212249756,-2.1678972244262695,11.974881172180176,0.5335903763771057,2.0218098163604736,-2.4859142303466797,8.684749603271484,-2.7936203479766846,10.03848934173584,0.8344413042068481,1.7620394229888916,-4.6492919921875,5.868995666503906,-4.348955154418945,8.237890243530273,0.6411026120185852,0.7072287201881409,-6.652470111846924,-0.5772684812545776,-5.624927997589111,10.377073287963867,0.8035926222801208,-0.2419024556875229,-7.605419158935547,-12.128620147705078,-4.140779495239258,12.373884201049805,1.7079778909683228,-1.2563961744308472,-6.426755428314209,-17.94437599182129,0.2189432680606842,11.000404357910156,2.0964879989624023,-1.355356216430664,-3.500713348388672,-18.92363739013672,2.7385854721069336,7.135396957397461,1.296255111694336,-0.9592103958129883,-0.5514581799507141,-14.669797897338867,3.817748546600342,5.2869415283203125,0.2620609998703003,-0.6814196705818176,1.5082250833511353,-10.735997200012207,3.803391695022583,6.545566558837891,-0.2370155304670334,-0.7229584455490112,2.5911357402801514,-7.534400463104248,3.5066816806793213,7.240681171417236,-0.31261005997657776,-0.9054543375968933,3.112355947494507,-5.182853698730469,2.547757863998413,6.297909259796143,-0.7116574645042419,-1.0943642854690552,3.4544403553009033,-3.28773832321167,0.9535398483276367,6.266204357147217,-1.46714448928833,-0.8442151546478271,3.8858635425567627,-1.848455548286438,-1.2843475341796875,8.679366111755371,-1.9648466110229492,0.0792597085237503,4.422660827636719,0.19142581522464752,-2.8283164501190186,11.280961990356445,-1.7099632024765015,1.138651967048645,4.688081741333008,2.82951283454895,-4.183850288391113,12.248260498046875,-1.1988221406936646,1.944993495941162,4.356229305267334,6.2327046394348145,-5.102694511413574,12.3009033203125,-0.7605266571044922,2.0995421409606934,3.036761522293091,10.686346054077148,-5.02133846282959,12.93200969696045,-0.18280129134655,1.619097113609314,0.21991132199764252,12.480962753295898,-4.5684967041015625,13.652249336242676,0.6096430420875549,0.8791871070861816,-3.0579891204833984,8.563314437866211,-5.342574596405029,12.284751892089844,1.239444613456726,0.31581708788871765,-5.351328372955322,3.0520453453063965,-5.862415313720703,11.146964073181152,1.6927063465118408,0.08659008145332336,-6.485857009887695,-4.980660438537598,-4.369294166564941,10.070792198181152,1.9720242023468018,-0.3559814393520355,-6.169887065887451,-12.547962188720703,-0.745364248752594,9.448657989501953,1.9175045490264893,-0.8810197114944458,-4.224435329437256,-15.798611640930176,2.4472594261169434,7.871190071105957,1.3292417526245117,-0.9334014058113098,-1.4970768690109253,-13.495519638061523,3.721437454223633,6.3254265785217285,0.5462658405303955,-0.8468112945556641,0.7394518256187439,-10.168299674987793,3.90987229347229,6.6729841232299805,0.024892739951610565,-0.928972601890564,2.0332634449005127,-7.320242881774902,3.6598222255706787,6.8518476486206055,-0.2649625837802887,-1.1151336431503296,2.654818296432495,-4.938786029815674,2.2618155479431152,6.969694137573242,-0.7464767694473267,-0.9934188723564148,3.162599563598633,-2.8636105060577393,0.8913264274597168,8.451449394226074,-1.119104266166687,-0.47525280714035034,3.6479318141937256,-1.5445669889450073,-0.867398202419281,11.011770248413086,-1.0306816101074219,0.5566505193710327,4.11096715927124,0.07776673883199692,-1.7258232831954956,11.877971649169922,-0.6856957077980042,1.528230905532837,4.104094982147217,1.500898003578186,-2.1852452754974365,11.506485939025879,-0.43310311436653137,1.836106777191162,3.3547165393829346,1.9986051321029663,-1.547558069229126,11.006983757019043,-0.23396120965480804,1.2941170930862427,2.0967934131622314,1.0067801475524902,-1.2185449600219727,10.947761535644531,-0.10323614627122879,0.38728827238082886,1.053436279296875,0.23748764395713806,-0.8309076428413391,10.943573951721191,0.03481929376721382,-0.3462076187133789,0.40149086713790894,-0.07357929646968842,-0.3924229145050049,10.527223587036133,0.12278381735086441,-0.6809614896774292,-0.01954767294228077,-0.46719861030578613,0.10707881301641464,10.140782356262207,0.18616104125976562,-0.6725621223449707,-0.21960589289665222,-0.8315058946609497,0.5838487148284912,9.81535816192627,0.2370155304670334,-0.4016436040401459,-0.23472478985786438,-1.3363914489746094,0.9254241585731506,9.373284339904785,0.21197007596492767,-0.09789107739925385,-0.11117739230394363,-1.4865410327911377,1.1168500185012817,9.037093162536621,0.09789107739925385,0.10445787757635117,0.05253437161445618,-1.5966109037399292,1.168893814086914,9.002995491027832,-0.023212861269712448,0.10201441496610641,0.12492185086011887,-1.588834285736084,1.1282159090042114,9.140582084655762,-0.11392628401517868,-0.05711585655808449,0.15225805342197418,-1.3208380937576294,1.0109676122665405,9.388239860534668,-0.15179990231990814,-0.13744457066059113,0.10216713696718216,-1.2550355195999146,0.7561319470405579,9.818947792053223,-0.13011419773101807,-0.08032871782779694,0.060933761298656464,-1.2699905633926392,0.6939185857772827,10.092926025390625,-0.03787361457943916,0.03909534588456154,0.06597339361906052,-1.3381860256195068,0.6287141442298889,10.00857925415039,0.003359756199643016,0.11316270381212234,0.08903354406356812,-1.2574282884597778,0.7926225066184998,9.795019149780273,-0.01649334840476513,0.05497783049941063,0.05940660089254379,-1.2472587823867798,0.7561319470405579,9.875777244567871,-0.05085449293255806,-0.039706211537122726,-0.02000582218170166,-1.165902853012085,0.8626125454902649,10.199406623840332,0.028557928279042244,-0.07589995115995407,-0.1026252806186676,-1.34476637840271,0.8392825126647949,10.003793716430664,0.09712749719619751,-0.06887500733137131,-0.12217295914888382,-1.534995675086975,0.9541380405426025,9.637093544006348,0.06643154472112656,-0.07131846249103546,-0.07635809481143951,-1.5589239597320557,0.9523434042930603,9.531808853149414,0.009162971749901772,-0.05222893878817558,-0.0256563201546669
