label,sub_label,user,file_id,mobile_accel_x0,mobile_accel_y0,mobile_accel_z0,mobile_gyros_x0,mobile_gyros_y0,mobile_gyros_z0,mobile_accel_x1,mobile_accel_y1,mobile_accel_z1,mobile_gyros_x1,mobile_gyros_y1,mobile_gyros_z1,mobile_accel_x2,mobile_accel_y2,mobile_accel_z2,mobile_gyros_x2,mobile_gyros_y2,mobile_gyros_z2,mobile_accel_x3,mobile_accel_y3,mobile_accel_z3,mobile_gyros_x3,mobile_gyros_y3,mobile_gyros_z3,mobile_accel_x4,mobile_accel_y4,mobile_accel_z4,mobile_gyros_x4,mobile_gyros_y4,mobile_gyros_z4,mobile_accel_x5,mobile_accel_y5,mobile_accel_z5,mobile_gyros_x5,mobile_gyros_y5,mobile_gyros_z5,mobile_accel_x6,mobile_accel_y6,mobile_accel_z6,mobile_gyros_x6,mobile_gyros_y6,mobile_gyros_z6,mobile_accel_x7,mobile_accel_y7,mobile_accel_z7,mobile_gyros_x7,mobile_gyros_y7,mobile_gyros_z7,mobile_accel_x8,mobile_accel_y8,mobile_accel_z8,mobile_gyros_x8,mobile_gyros_y8,mobile_gyros_z8,mobile_accel_x9,mobile_accel_y9,mobile_accel_z9,mobile_gyros_x9,mobile_gyros_y9,mobile_gyros_z9,mobile_accel_x10,mobile_accel_y10,mobile_accel_z10,mobile_gyros_x10,mobile_gyros_y10,mobile_gyros_z10,mobile_accel_x11,mobile_accel_y11,mobile_accel_z11,mobile_gyros_x11,mobile_gyros_y11,mobile_gyros_z11,mobile_accel_x12,mobile_accel_y12,mobile_accel_z12,mobile_gyros_x12,mobile_gyros_y12,mobile_gyros_z12,mobile_accel_x13,mobile_accel_y13,mobile_accel_z13,mobile_gyros_x13,mobile_gyros_y13,mobile_gyros_z13,mobile_accel_x14,mobile_accel_y14,mobile_accel_z14,mobile_gyros_x14,mobile_gyros_y14,mobile_gyros_z14,mobile_accel_x15,mobile_accel_y15,mobile_accel_z15,mobile_gyros_x15,mobile_gyros_y15,mobile_gyros_z15,mobile_accel_x16,mobile_accel_y16,mobile_accel_z16,mobile_gyros_x16,mobile_gyros_y16,mobile_gyros_z16,mobile_accel_x17,mobile_accel_y17,mobile_accel_z17,mobile_gyros_x17,mobile_gyros_y17,mobile_gyros_z17,mobile_accel_x18,mobile_accel_y18,mobile_accel_z18,mobile_gyros_x18,mobile_gyros_y18,mobile_gyros_z18,mobile_accel_x19,mobile_accel_y19,mobile_accel_z19,mobile_gyros_x19,mobile_gyros_y19,mobile_gyros_z19,mobile_accel_x20,mobile_accel_y20,mobile_accel_z20,mobile_gyros_x20,mobile_gyros_y20,mobile_gyros_z20,mobile_accel_x21,mobile_accel_y21,mobile_accel_z21,mobile_gyros_x21,mobile_gyros_y21,mobile_gyros_z21,mobile_accel_x22,mobile_accel_y22,mobile_accel_z22,mobile_gyros_x22,mobile_gyros_y22,mobile_gyros_z22,mobile_accel_x23,mobile_accel_y23,mobile_accel_z23,mobile_gyros_x23,mobile_gyros_y23,mobile_gyros_z23,mobile_accel_x24,mobile_accel_y24,mobile_accel_z24,mobile_gyros_x24,mobile_gyros_y24,mobile_gyros_z24,mobile_accel_x25,mobile_accel_y25,mobile_accel_z25,mobile_gyros_x25,mobile_gyros_y25,mobile_gyros_z25,mobile_accel_x26,mobile_accel_y26,mobile_accel_z26,mobile_gyros_x26,mobile_gyros_y26,mobile_gyros_z26,mobile_accel_x27,mobile_accel_y27,mobile_accel_z27,mobile_gyros_x27,mobile_gyros_y27,mobile_gyros_z27,mobile_accel_x28,mobile_accel_y28,mobile_accel_z28,mobile_gyros_x28,mobile_gyros_y28,mobile_gyros_z28,mobile_accel_x29,mobile_accel_y29,mobile_accel_z29,mobile_gyros_x29,mobile_gyros_y29,mobile_gyros_z29,mobile_accel_x30,mobile_accel_y30,mobile_accel_z30,mobile_gyros_x30,mobile_gyros_y30,mobile_gyros_z30,mobile_accel_x31,mobile_accel_y31,mobile_accel_z31,mobile_gyros_x31,mobile_gyros_y31,mobile_gyros_z31,mobile_accel_x32,mobile_accel_y32,mobile_accel_z32,mobile_gyros_x32,mobile_gyros_y32,mobile_gyros_z32,mobile_accel_x33,mobile_accel_y33,mobile_accel_z33,mobile_gyros_x33,mobile_gyros_y33,mobile_gyros_z33,mobile_accel_x34,mobile_accel_y34,mobile_accel_z34,mobile_gyros_x34,mobile_gyros_y34,mobile_gyros_z34,mobile_accel_x35,mobile_accel_y35,mobile_accel_z35,mobile_gyros_x35,mobile_gyros_y35,mobile_gyros_z35,mobile_accel_x36,mobile_accel_y36,mobile_accel_z36,mobile_gyros_x36,mobile_gyros_y36,mobile_gyros_z36,mobile_accel_x37,mobile_accel_y37,mobile_accel_z37,mobile_gyros_x37,mobile_gyros_y37,mobile_gyros_z37,mobile_accel_x38,mobile_accel_y38,mobile_accel_z38,mobile_gyros_x38,mobile_gyros_y38,mobile_gyros_z38,mobile_accel_x39,mobile_accel_y39,mobile_accel_z39,mobile_gyros_x39,mobile_gyros_y39,mobile_gyros_z39,mobile_accel_x40,mobile_accel_y40,mobile_accel_z40,mobile_gyros_x40,mobile_gyros_y40,mobile_gyros_z40,mobile_accel_x41,mobile_accel_y41,mobile_accel_z41,mobile_gyros_x41,mobile_gyros_y41,mobile_gyros_z41,mobile_accel_x42,mobile_accel_y42,mobile_accel_z42,mobile_gyros_x42,mobile_gyros_y42,mobile_gyros_z42,mobile_accel_x43,mobile_accel_y43,mobile_accel_z43,mobile_gyros_x43,mobile_gyros_y43,mobile_gyros_z43,mobile_accel_x44,mobile_accel_y44,mobile_accel_z44,mobile_gyros_x44,mobile_gyros_y44,mobile_gyros_z44,mobile_accel_x45,mobile_accel_y45,mobile_accel_z45,mobile_gyros_x45,mobile_gyros_y45,mobile_gyros_z45,mobile_accel_x46,mobile_accel_y46,mobile_accel_z46,mobile_gyros_x46,mobile_gyros_y46,mobile_gyros_z46,mobile_accel_x47,mobile_accel_y47,mobile_accel_z47,mobile_gyros_x47,mobile_gyros_y47,mobile_gyros_z47,mobile_accel_x48,mobile_accel_y48,mobile_accel_z48,mobile_gyros_x48,mobile_gyros_y48,mobile_gyros_z48,mobile_accel_x49,mobile_accel_y49,mobile_accel_z49,mobile_gyros_x49,mobile_gyros_y49,mobile_gyros_z49,mobile_accel_x50,mobile_accel_y50,mobile_accel_z50,mobile_gyros_x50,mobile_gyros_y50,mobile_gyros_z50
shake,10201,208,208_10201_260414155049615,8.127820014953613,-2.149951219558716,11.357532501220703,1.0328196287155151,1.3694061040878296,-3.2478153705596924,6.041278839111328,-2.294118642807007,9.90987491607666,1.1954623460769653,0.8933897614479065,-4.739089012145996,2.0865414142608643,-2.4131617546081543,9.293723106384277,1.2890774011611938,0.3455967605113983,-5.8575825691223145,-3.159722328186035,-2.472982168197632,9.017950057983398,1.4201078414916992,0.31062474846839905,-6.341692924499512,-14.955141067504883,-0.4049852192401886,9.601799011230469,1.6090178489685059,0.07360920310020447,-4.713585376739502,-20.9102783203125,4.791627407073975,8.854640007019043,1.4572179317474365,-0.0513126403093338,-1.16079580783844,-17.298912048339844,6.156134605407715,4.8538408279418945,0.5986474752426147,-0.34498587250709534,1.504712700843811,-11.276176452636719,5.755934715270996,2.967100143432617,-0.47525280714035034,-0.8900299668312073,2.5833470821380615,-7.331608772277832,4.713860511779785,3.507878065109253,-1.4216350317001343,-1.525940179824829,2.9348998069763184,-4.4620161056518555,3.8333017826080322,4.8574299812316895,-2.073580503463745,-1.8826853036880493,3.2980589866638184,-1.6157535314559937,1.5936198234558105,5.532206058502197,-2.618013620376587,-1.6004657745361328,3.718791961669922,1.9178473949432373,-1.6354942321777344,6.6915283203125,-3.1112871170043945,-0.549930989742279,3.855320453643799,8.127820014953613,-4.954339504241943,12.123833656311035,-2.7540838718414307,1.2884665727615356,2.9148941040039062,15.607185363769531,-5.2384867668151855,15.312270164489746,-1.2913681268692017,2.7252204418182373,-0.22159120440483093,13.345968246459961,-7.098308563232422,13.420743942260742,-0.35995206236839294,2.0886993408203125,-3.5576765537261963,6.433103561401367,-7.737192153930664,13.03908920288086,0.2419024556875229,0.14080433547496796,-5.3549933433532715,0.6843472719192505,-6.945765972137451,13.692927360534668,0.9828814268112183,-0.713184654712677,-5.898510456085205,-6.605386734008789,-4.208376884460449,12.642477989196777,1.4495820999145508,-0.8943060636520386,-4.997026443481445,-12.350554466247559,-0.4815555512905121,11.174481391906738,1.4850122928619385,-0.8859066367149353,-2.8121159076690674,-12.707084655761719,2.4131617546081543,9.094520568847656,1.2316560745239258,-0.7322741746902466,-0.7070759534835815,-11.638689041137695,3.2608189582824707,8.437092781066895,0.8707877397537231,-0.7079922556877136,0.9596685767173767,-9.759725570678711,3.6735808849334717,9.242277145385742,0.9338595271110535,-0.7371610999107361,2.2870776653289795,-7.17368221282959,3.4582269191741943,7.908876895904541,0.893542468547821,-0.6956222653388977,3.243539333343506,-4.755734920501709,2.6015963554382324,6.495316982269287,0.3341430425643921,-0.47815442085266113,3.906938314437866,-2.561516523361206,1.454836130142212,6.668198585510254,-0.41126471757888794,0.11881320178508759,4.358520030975342,-1.3148560523986816,0.11605189740657806,8.186444282531738,-0.8533781170845032,0.9967786073684692,4.52482795715332,-0.42771705985069275,-1.1353943347930908,10.666007041931152,-0.8100066781044006,1.9523237943649292,4.601644515991211,0.4133601188659668,-1.7736797332763672,11.58006477355957,-0.4845684766769409,2.389092206954956,4.31621789932251,1.4225330352783203,-1.7497515678405762,11.413763999938965,-0.23854269087314606,2.0857977867126465,3.5607306957244873,1.8263218402862549,-1.5074782371520996,10.981261253356934,-0.1542433500289917,1.2505929470062256,2.50317120552063,1.848455548286438,-1.1228320598602295,10.676774978637695,-0.15668681263923645,0.2987128794193268,1.4282019138336182,1.3746765851974487,-0.7429714202880859,10.533205032348633,-0.2006690800189972,-0.37552911043167114,0.6331613659858704,1.0001999139785767,-0.4127618968486786,10.642078399658203,-0.1623373180627823,-0.6035344004631042,0.1740964651107788,0.6538388133049011,-0.1495514214038849,10.821540832519531,0.016340631991624832,-0.3776671588420868,-0.028099779039621353,0.13579268753528595,0.259621262550354,10.708479881286621,0.23472478985786438,0.09285144507884979,-0.05222893878817558,-0.6508477330207825,0.6442674994468689,10.076774597167969,0.35323256254196167,0.36682429909706116,-0.0013744457392022014,-1.322034478187561,0.9780662655830383,9.358927726745605,0.281455934047699,0.31642794609069824,0.06307178735733032,-1.4273186922073364,1.0755738019943237,9.028717994689941,0.0977383628487587,0.0360410213470459,0.08750637620687485,-1.29810631275177,1.0707881450653076,9.161520004272461,-0.053145237267017365,-0.19639302790164948,0.06047561392188072,-1.2317054271697998,0.9092726111412048,9.4660062789917,-0.1331685185432434,-0.2603811025619507,0.05604684352874756,-1.1838489770889282,0.9493523836135864,9.70349407196045,-0.12583814561367035,-0.2367101013660431,0.050090912729501724,-1.1168500185012817,0.8697910308837891,9.881160736083984,-0.06826414167881012,-0.14477495849132538,0.06963858753442764,-0.859621524810791,1.0432707071304321,9.802796363830566,0.007483093533664942,-0.06276635825634003,0.06963858753442764,-0.885344386100769,0.9427721500396729,9.512067794799805,-0.01588248461484909,0.02626718580722809,0.014508038759231567,-1.0109676122665405,1.0606186389923096,9.622138023376465,-0.046425722539424896,0.07452550530433655,-0.030695954337716103,-1.212562918663025,1.165902853012085,9.711270332336426,-0.05192350596189499,0.08048143237829208,-0.0769689604640007,-1.6175481081008911,1.150349497795105,9.717850685119629,-0.0769689604640007,0.04550942778587341,-0.05222893878817558,-1.8299111127853394,1.0450652837753296,9.783653259277344,-0.12980876863002777,-0.0021380267571657896,0.0642935186624527,-1.6929219961166382,0.989432156085968,10.120443344116211,-0.11026109009981155,0.017867794260382652,0.1366809904575348,-1.4644074440002441,0.9200403094291687,10.335199356079102,-0.028863361105322838,0.05925388261675835,0.15836669504642487,-1.3094722032546997,1.0019944906234741,10.219147682189941,0.03481929376721382,0.015271619893610477,0.10094540566205978
