label,sub_label,user,file_id,mobile_accel_x0,mobile_accel_y0,mobile_accel_z0,mobile_gyros_x0,mobile_gyros_y0,mobile_gyros_z0,mobile_accel_x1,mobile_accel_y1,mobile_accel_z1,mobile_gyros_x1,mobile_gyros_y1,mobile_gyros_z1,mobile_accel_x2,mobile_accel_y2,mobile_accel_z2,mobile_gyros_x2,mobile_gyros_y2,mobile_gyros_z2,mobile_accel_x3,mobile_accel_y3,mobile_accel_z3,mobile_gyros_x3,mobile_gyros_y3,mobile_gyros_z3,mobile_accel_x4,mobile_accel_y4,mobile_accel_z4,mobile_gyros_x4,mobile_gyros_y4,mobile_gyros_z4,mobile_accel_x5,mobile_accel_y5,mobile_accel_z5,mobile_gyros_x5,mobile_gyros_y5,mobile_gyros_z5,mobile_accel_x6,mobile_accel_y6,mobile_accel_z6,mobile_gyros_x6,mobile_gyros_y6,mobile_gyros_z6,mobile_accel_x7,mobile_accel_y7,mobile_accel_z7,mobile_gyros_x7,mobile_gyros_y7,mobile_gyros_z7,mobile_accel_x8,mobile_accel_y8,mobile_accel_z8,mobile_gyros_x8,mobile_gyros_y8,mobile_gyros_z8,mobile_accel_x9,mobile_accel_y9,mobile_accel_z9,mobile_gyros_x9,mobile_gyros_y9,mobile_gyros_z9,mobile_accel_x10,mobile_accel_y10,mobile_accel_z10,mobile_gyros_x10,mobile_gyros_y10,mobile_gyros_z10,mobile_accel_x11,mobile_accel_y11,mobile_accel_z11,mobile_gyros_x11,mobile_gyros_y11,mobile_gyros_z11,mobile_accel_x12,mobile_accel_y12,mobile_accel_z12,mobile_gyros_x12,mobile_gyros_y12,mobile_gyros_z12,mobile_accel_x13,mobile_accel_y13,mobile_accel_z13,mobile_gyros_x13,mobile_gyros_y13,mobile_gyros_z13,mobile_accel_x14,mobile_accel_y14,mobile_accel_z14,mobile_gyros_x14,mobile_gyros_y14,mobile_gyros_z14,mobile_accel_x15,mobile_accel_y15,mobile_accel_z15,mobile_gyros_x15,mobile_gyros_y15,mobile_gyros_z15,mobile_accel_x16,mobile_accel_y16,mobile_accel_z16,mobile_gyros_x16,mobile_gyros_y16,mobile_gyros_z16,mobile_accel_x17,mobile_accel_y17,mobile_accel_z17,mobile_gyros_x17,mobile_gyros_y17,mobile_gyros_z17,mobile_accel_x18,mobile_accel_y18,mobile_accel_z18,mobile_gyros_x18,mobile_gyros_y18,mobile_gyros_z18,mobile_accel_x19,mobile_accel_y19,mobile_accel_z19,mobile_gyros_x19,mobile_gyros_y19,mobile_gyros_z19,mobile_accel_x20,mobile_accel_y20,mobile_accel_z20,mobile_gyros_x20,mobile_gyros_y20,mobile_gyros_z20,mobile_accel_x21,mobile_accel_y21,mobile_accel_z21,mobile_gyros_x21,mobile_gyros_y21,mobile_gyros_z21,mobile_accel_x22,mobile_accel_y22,mobile_accel_z22,mobile_gyros_x22,mobile_gyros_y22,mobile_gyros_z22,mobile_accel_x23,mobile_accel_y23,mobile_accel_z23,mobile_gyros_x23,mobile_gyros_y23,mobile_gyros_z23,mobile_accel_x24,mobile_accel_y24,mobile_accel_z24,mobile_gyros_x24,mobile_gyros_y24,mobile_gyros_z24,mobile_accel_x25,mobile_accel_y25,mobile_accel_z25,mobile_gyros_x25,mobile_gyros_y25,mobile_gyros_z25,mobile_accel_x26,mobile_accel_y26,mobile_accel_z26,mobile_gyros_x26,mobile_gyros_y26,mobile_gyros_z26,mobile_accel_x27,mobile_accel_y27,mobile_accel_z27,mobile_gyros_x27,mobile_gyros_y27,mobile_gyros_z27,mobile_accel_x28,mobile_accel_y28,mobile_accel_z28,mobile_gyros_x28,mobile_gyros_y28,mobile_gyros_z28,mobile_accel_x29,mobile_accel_y29,mobile_accel_z29,mobile_gyros_x29,mobile_gyros_y29,mobile_gyros_z29,mobile_accel_x30,mobile_accel_y30,mobile_accel_z30,mobile_gyros_x30,mobile_gyros_y30,mobile_gyros_z30,mobile_accel_x31,mobile_accel_y31,mobile_accel_z31,mobile_gyros_x31,mobile_gyros_y31,mobile_gyros_z31,mobile_accel_x32,mobile_accel_y32,mobile_accel_z32,mobile_gyros_x32,mobile_gyros_y32,mobile_gyros_z32,mobile_accel_x33,mobile_accel_y33,mobile_accel_z33,mobile_gyros_x33,mobile_gyros_y33,mobile_gyros_z33,mobile_accel_x34,mobile_accel_y34,mobile_accel_z34,mobile_gyros_x34,mobile_gyros_y34,mobile_gyros_z34,mobile_accel_x35,mobile_accel_y35,mobile_accel_z35,mobile_gyros_x35,mobile_gyros_y35,mobile_gyros_z35,mobile_accel_x36,mobile_accel_y36,mobile_accel_z36,mobile_gyros_x36,mobile_gyros_y36,mobile_gyros_z36,mobile_accel_x37,mobile_accel_y37,mobile_accel_z37,mobile_gyros_x37,mobile_gyros_y37,mobile_gyros_z37,mobile_accel_x38,mobile_accel_y38,mobile_accel_z38,mobile_gyros_x38,mobile_gyros_y38,mobile_gyros_z38,mobile_accel_x39,mobile_accel_y39,mobile_accel_z39,mobile_gyros_x39,mobile_gyros_y39,mobile_gyros_z39,mobile_accel_x40,mobile_accel_y40,mobile_accel_z40,mobile_gyros_x40,mobile_gyros_y40,mobile_gyros_z40,mobile_accel_x41,mobile_accel_y41,mobile_accel_z41,mobile_gyros_x41,mobile_gyros_y41,mobile_gyros_z41,mobile_accel_x42,mobile_accel_y42,mobile_accel_z42,mobile_gyros_x42,mobile_gyros_y42,mobile_gyros_z42,mobile_accel_x43,mobile_accel_y43,mobile_accel_z43,mobile_gyros_x43,mobile_gyros_y43,mobile_gyros_z43,mobile_accel_x44,mobile_accel_y44,mobile_accel_z44,mobile_gyros_x44,mobile_gyros_y44,mobile_gyros_z44,mobile_accel_x45,mobile_accel_y45,mobile_accel_z45,mobile_gyros_x45,mobile_gyros_y45,mobile_gyros_z45,mobile_accel_x46,mobile_accel_y46,mobile_accel_z46,mobile_gyros_x46,mobile_gyros_y46,mobile_gyros_z46,mobile_accel_x47,mobile_accel_y47,mobile_accel_z47,mobile_gyros_x47,mobile_gyros_y47,mobile_gyros_z47,mobile_accel_x48,mobile_accel_y48,mobile_accel_z48,mobile_gyros_x48,mobile_gyros_y48,mobile_gyros_z48
shake,10201,208,208_10201_260414155011023,13.080365180969238,-3.208176851272583,6.787241458892822,-0.8865175247192383,0.7452550530433655,-3.1502296924591064,13.223934173583984,-4.934000492095947,9.352945327758789,-1.1478148698806763,0.5847502946853638,-5.116297721862793,9.426525115966797,-5.44426965713501,12.757333755493164,-0.22418737411499023,0.36835145950317383,-6.878337383270264,0.4223332107067108,-5.61954402923584,10.840682983398438,0.5900954008102417,-0.5128209590911865,-7.937271595001221,-13.964512825012207,-4.329812526702881,8.61595630645752,0.01511890348047018,-2.1019856929779053,-6.74975061416626,-21.815961837768555,-0.706480860710144,12.113664627075195,-0.6934842467308044,-2.2534801959991455,-3.268584728240967,-20.307287216186523,0.6831508874893188,15.711273193359375,-0.3790415823459625,-0.2571740746498108,0.03817904740571976,-16.76291847229004,1.6911274194717407,16.704893112182617,0.6027708053588867,0.9874629378318787,2.383899688720703,-12.224332809448242,2.2480568885803223,14.739787101745605,1.7427972555160522,0.9671516418457031,3.6401431560516357,-7.989036560058594,1.7688941955566406,10.546365737915039,2.2481350898742676,0.6311760544776917,4.210385322570801,-4.230510234832764,1.2221341133117676,7.265805721282959,1.9979859590530396,0.5305360555648804,4.526050090789795,-0.4995017349720001,0.7357929348945618,5.673980712890625,1.3384047746658325,0.708145022392273,4.669450283050537,3.704089403152466,-0.39421752095222473,4.435096740722656,0.3292561173439026,0.8782708644866943,4.442819595336914,8.601000785827637,-1.8664016723632812,5.4041900634765625,-0.7128791809082031,0.722347617149353,3.531562089920044,14.605789184570312,-2.9479575157165527,8.733802795410156,-1.0978766679763794,0.7492256760597229,1.3840668201446533,17.877973556518555,-3.0071799755096436,11.249855995178223,-0.6624828577041626,1.1568251848220825,-1.7238603830337524,14.248661041259766,-4.131806373596191,10.045069694519043,-0.2669478952884674,1.4862339496612549,-4.560410976409912,5.966503143310547,-4.624129772186279,9.154939651489258,-0.16676609218120575,0.7101303339004517,-5.967537879943848,-2.568096876144409,-3.4103705883026123,9.976874351501465,0.03543015569448471,-0.4263836145401001,-5.993499755859375,-10.388439178466797,-1.0307083129882812,10.551151275634766,0.11423171311616898,-1.2663227319717407,-4.6230244636535645,-13.883156776428223,0.9589236974716187,11.316854476928711,0.017562363296747208,-1.2180644273757935,-2.4162757396698,-13.860424995422363,2.2432711124420166,11.718849182128906,0.08552107214927673,-0.2987128794193268,-0.40775224566459656,-12.617952346801758,3.238685369491577,11.402398109436035,0.249690979719162,0.3384190797805786,1.2261583805084229,-11.460424423217773,3.6819558143615723,10.718050956726074,0.4868592321872711,-0.011911863461136818,2.469420909881592,-8.900103569030762,2.9180471897125244,9.038289070129395,0.4644099473953247,-0.648127555847168,3.420231819152832,-4.752145767211914,1.7647067308425903,7.762316703796387,0.15561780333518982,-0.5568032264709473,3.79988431930542,-1.1784651279449463,0.9463613629341125,7.414759159088135,-0.3659079968929291,0.16676609218120575,3.76033091545105,0.6765705943107605,0.3002992272377014,8.073383331298828,-0.8662062287330627,0.6866120100021362,3.54255747795105,1.8317056894302368,-0.2315055876970291,10.234700202941895,-0.8811724185943604,0.794124186038971,3.1557273864746094,2.7314071655273438,-0.5581258535385132,11.6183500289917,-0.4917461574077606,0.7385355234146118,2.5280637741088867,3.0215368270874023,-0.5138586759567261,11.394621849060059,-0.08582650125026703,0.476779967546463,1.6872085332870483,2.5495524406433105,-0.5485545992851257,10.381858825683594,-6.10864779446274E-4,0.1740964651107788,0.8286380767822266,1.4518451690673828,-0.26201409101486206,10.067203521728516,-0.08093958348035812,-0.03481929376721382,0.1802051067352295,0.18364913761615753,0.02871387079358101,10.375279426574707,-0.0873536616563797,-0.18081597983837128,-0.06368265300989151,-0.6622136831283569,0.3409772217273712,10.74556827545166,0.06246092543005943,-0.14110976457595825,-0.049480047076940536,-0.9798609018325806,0.7244270443916321,10.503294944763184,0.23335035145282745,-0.011453714221715927,0.08261945843696594,-0.747757077217102,1.1521440744400024,9.926624298095703,0.3168860971927643,0.045967575162649155,0.16065743565559387,-0.37806597352027893,1.5571293830871582,9.546165466308594,0.3173442482948303,0.07971785217523575,0.14080433547496796,-0.25004997849464417,1.755135416984558,9.34277629852295,0.29336780309677124,0.17776164412498474,0.04550942778587341,-0.5706881880760193,2.0542383193969727,9.137591361999512,0.21349723637104034,0.07513637095689774,-0.037262752652168274,-0.8997012972831726,2.135594129562378,9.294919967651367,0.14141519367694855,-0.10140355676412582,-0.04276053607463837,-0.8721838593482971,2.0817556381225586,9.359525680541992,0.0974329337477684,-0.10445787757635117,-0.007024944759905338,-0.9744769930839539,2.018345832824707,9.449854850769043,0.049480047076940536,-0.03481929376721382,0.08170316368341446,-1.054038405418396,1.970489501953125,9.711270332336426,0.06108647957444191,-0.046883873641490936,0.17531819641590118,-0.9397810697555542,1.8969101905822754,9.79262638092041,0.09056070446968079,-0.12843431532382965,0.22189663350582123,-0.5659025311470032,1.8903298377990723,9.620942115783691,0.0974329337477684,-0.1406516134738922,0.1769980639219284,-0.47198426723480225,1.8346967697143555,9.515657424926758,0.05787943676114082,-0.12476912885904312,0.09407317638397217,-0.6317051649093628,1.8885352611541748,9.848857879638672,0.10109812021255493,-0.14462223649024963,0.09162971377372742,-0.5515456199645996,1.947757601737976,9.69093132019043,0.13484840095043182,-0.13851359486579895,0.10934479534626007
