label,sub_label,user,file_id,mobile_accel_x0,mobile_accel_y0,mobile_accel_z0,mobile_gyros_x0,mobile_gyros_y0,mobile_gyros_z0,mobile_accel_x1,mobile_accel_y1,mobile_accel_z1,mobile_gyros_x1,mobile_gyros_y1,mobile_gyros_z1,mobile_accel_x2,mobile_accel_y2,mobile_accel_z2,mobile_gyros_x2,mobile_gyros_y2,mobile_gyros_z2,mobile_accel_x3,mobile_accel_y3,mobile_accel_z3,mobile_gyros_x3,mobile_gyros_y3,mobile_gyros_z3,mobile_accel_x4,mobile_accel_y4,mobile_accel_z4,mobile_gyros_x4,mobile_gyros_y4,mobile_gyros_z4,mobile_accel_x5,mobile_accel_y5,mobile_accel_z5,mobile_gyros_x5,mobile_gyros_y5,mobile_gyros_z5,mobile_accel_x6,mobile_accel_y6,mobile_accel_z6,mobile_gyros_x6,mobile_gyros_y6,mobile_gyros_z6,mobile_accel_x7,mobile_accel_y7,mobile_accel_z7,mobile_gyros_x7,mobile_gyros_y7,mobile_gyros_z7,mobile_accel_x8,mobile_accel_y8,mobile_accel_z8,mobile_gyros_x8,mobile_gyros_y8,mobile_gyros_z8,mobile_accel_x9,mobile_accel_y9,mobile_accel_z9,mobile_gyros_x9,mobile_gyros_y9,mobile_gyros_z9,mobile_accel_x10,mobile_accel_y10,mobile_accel_z10,mobile_gyros_x10,mobile_gyros_y10,mobile_gyros_z10,mobile_accel_x11,mobile_accel_y11,mobile_accel_z11,mobile_gyros_x11,mobile_gyros_y11,mobile_gyros_z11,mobile_accel_x12,mobile_accel_y12,mobile_accel_z12,mobile_gyros_x12,mobile_gyros_y12,mobile_gyros_z12,mobile_accel_x13,mobile_accel_y13,mobile_accel_z13,mobile_gyros_x13,mobile_gyros_y13,mobile_gyros_z13,mobile_accel_x14,mobile_accel_y14,mobile_accel_z14,mobile_gyros_x14,mobile_gyros_y14,mobile_gyros_z14,mobile_accel_x15,mobile_accel_y15,mobile_accel_z15,mobile_gyros_x15,mobile_gyros_y15,mobile_gyros_z15,mobile_accel_x16,mobile_accel_y16,mobile_accel_z16,mobile_gyros_x16,mobile_gyros_y16,mobile_gyros_z16,mobile_accel_x17,mobile_accel_y17,mobile_accel_z17,mobile_gyros_x17,mobile_gyros_y17,mobile_gyros_z17,mobile_accel_x18,mobile_accel_y18,mobile_accel_z18,mobile_gyros_x18,mobile_gyros_y18,mobile_gyros_z18,mobile_accel_x19,mobile_accel_y19,mobile_accel_z19,mobile_gyros_x19,mobile_gyros_y19,mobile_gyros_z19,mobile_accel_x20,mobile_accel_y20,mobile_accel_z20,mobile_gyros_x20,mobile_gyros_y20,mobile_gyros_z20,mobile_accel_x21,mobile_accel_y21,mobile_accel_z21,mobile_gyros_x21,mobile_gyros_y21,mobile_gyros_z21,mobile_accel_x22,mobile_accel_y22,mobile_accel_z22,mobile_gyros_x22,mobile_gyros_y22,mobile_gyros_z22,mobile_accel_x23,mobile_accel_y23,mobile_accel_z23,mobile_gyros_x23,mobile_gyros_y23,mobile_gyros_z23,mobile_accel_x24,mobile_accel_y24,mobile_accel_z24,mobile_gyros_x24,mobile_gyros_y24,mobile_gyros_z24,mobile_accel_x25,mobile_accel_y25,mobile_accel_z25,mobile_gyros_x25,mobile_gyros_y25,mobile_gyros_z25,mobile_accel_x26,mobile_accel_y26,mobile_accel_z26,mobile_gyros_x26,mobile_gyros_y26,mobile_gyros_z26,mobile_accel_x27,mobile_accel_y27,mobile_accel_z27,mobile_gyros_x27,mobile_gyros_y27,mobile_gyros_z27,mobile_accel_x28,mobile_accel_y28,mobile_accel_z28,mobile_gyros_x28,mobile_gyros_y28,mobile_gyros_z28,mobile_accel_x29,mobile_accel_y29,mobile_accel_z29,mobile_gyros_x29,mobile_gyros_y29,mobile_gyros_z29,mobile_accel_x30,mobile_accel_y30,mobile_accel_z30,mobile_gyros_x30,mobile_gyros_y30,mobile_gyros_z30,mobile_accel_x31,mobile_accel_y31,mobile_accel_z31,mobile_gyros_x31,mobile_gyros_y31,mobile_gyros_z31,mobile_accel_x32,mobile_accel_y32,mobile_accel_z32,mobile_gyros_x32,mobile_gyros_y32,mobile_gyros_z32,mobile_accel_x33,mobile_accel_y33,mobile_accel_z33,mobile_gyros_x33,mobile_gyros_y33,mobile_gyros_z33,mobile_accel_x34,mobile_accel_y34,mobile_accel_z34,mobile_gyros_x34,mobile_gyros_y34,mobile_gyros_z34,mobile_accel_x35,mobile_accel_y35,mobile_accel_z35,mobile_gyros_x35,mobile_gyros_y35,mobile_gyros_z35,mobile_accel_x36,mobile_accel_y36,mobile_accel_z36,mobile_gyros_x36,mobile_gyros_y36,mobile_gyros_z36,mobile_accel_x37,mobile_accel_y37,mobile_accel_z37,mobile_gyros_x37,mobile_gyros_y37,mobile_gyros_z37,mobile_accel_x38,mobile_accel_y38,mobile_accel_z38,mobile_gyros_x38,mobile_gyros_y38,mobile_gyros_z38,mobile_accel_x39,mobile_accel_y39,mobile_accel_z39,mobile_gyros_x39,mobile_gyros_y39,mobile_gyros_z39,mobile_accel_x40,mobile_accel_y40,mobile_accel_z40,mobile_gyros_x40,mobile_gyros_y40,mobile_gyros_z40,mobile_accel_x41,mobile_accel_y41,mobile_accel_z41,mobile_gyros_x41,mobile_gyros_y41,mobile_gyros_z41,mobile_accel_x42,mobile_accel_y42,mobile_accel_z42,mobile_gyros_x42,mobile_gyros_y42,mobile_gyros_z42,mobile_accel_x43,mobile_accel_y43,mobile_accel_z43,mobile_gyros_x43,mobile_gyros_y43,mobile_gyros_z43,mobile_accel_x44,mobile_accel_y44,mobile_accel_z44,mobile_gyros_x44,mobile_gyros_y44,mobile_gyros_z44,mobile_accel_x45,mobile_accel_y45,mobile_accel_z45,mobile_gyros_x45,mobile_gyros_y45,mobile_gyros_z45,mobile_accel_x46,mobile_accel_y46,mobile_accel_z46,mobile_gyros_x46,mobile_gyros_y46,mobile_gyros_z46,mobile_accel_x47,mobile_accel_y47,mobile_accel_z47,mobile_gyros_x47,mobile_gyros_y47,mobile_gyros_z47
shake,10201,206,206_10201_260413222238084,11.536396026611328,3.260220766067505,8.840283393859863,2.0131049156188965,6.985696792602539,-2.867093801498413,10.740782737731934,2.4777679443359375,6.040680885314941,2.543335437774658,8.563713073730469,-4.470919132232666,8.041678428649902,1.6079767942428589,2.489732027053833,2.480721950531006,8.35036849975586,-5.989834785461426,2.3994028568267822,-0.1052841991186142,0.16869398951530457,1.9944734573364258,6.085282325744629,-7.17002534866333,-6.9475603103637695,-1.042074203491211,-1.6211373805999756,0.6985238790512085,2.0777037143707275,-7.119170665740967,-18.288942337036133,1.6175481081008911,0.3601198196411133,-0.6653844714164734,-1.9297218322753906,-4.886154651641846,-24.006591796875,7.534400463104248,7.853243827819824,-0.5752819180488586,-3.996277332305908,-1.4417935609817505,-21.0245361328125,9.022735595703125,11.788240432739258,0.5852084755897522,-4.123795509338379,1.2180644273757935,-14.243874549865723,6.963113784790039,8.088936805725098,0.9245438575744629,-3.903578758239746,2.3567163944244385,-9.56351375579834,6.221338748931885,6.561119556427002,0.8544471263885498,-3.9999425411224365,2.6812381744384766,-8.57468032836914,6.570691108703613,7.350750923156738,0.8891136646270752,-4.393492221832275,3.1306819915771484,-8.09850788116455,6.485745906829834,7.886743545532227,1.152549147605896,-4.906466007232666,3.7953028678894043,-5.289932727813721,5.034498691558838,5.520840167999268,1.164919137954712,-5.3273515701293945,4.1427321434021,0.40677985548973083,3.8123645782470703,1.973480463027954,0.6737838387489319,-4.995346546173096,3.652360439300537,8.444869041442871,3.4983067512512207,-1.0660024881362915,-0.2942841053009033,-2.615112066268921,2.1143558025360107,15.566507339477539,2.991028308868408,1.781456470489502,-0.5962040424346924,3.1083853244781494,-0.22479823231697083,17.604595184326172,1.7676976919174194,10.000802040100098,1.4291181564331055,9.37463665008545,-2.7290384769439697,16.446468353271484,-0.32721850275993347,7.828119277954102,3.676642417907715,13.00851821899414,-5.128820896148682,12.187243461608887,-1.1024930477142334,-3.091526746749878,3.2430810928344727,11.902853012084961,-7.422923564910889,-3.0927233695983887,-2.2187447547912598,-12.101700782775879,0.20738859474658966,5.643779754638672,-7.762564182281494,-21.884756088256836,0.25064817070961,-9.0514497756958,-2.651916742324829,-1.5911500453948975,-4.662578105926514,-25.441686630249023,8.178668022155762,8.635098457336426,-2.1940736770629883,-4.549415588378906,-0.8544471263885498,-18.807586669921875,9.177671432495117,15.692131042480469,0.5213730931282043,-4.464657783508301,1.1250602006912231,-11.946764945983887,5.776273727416992,7.855038642883301,1.079703450202942,-3.9266388416290283,1.7510439157485962,-6.8482584953308105,5.437689304351807,3.0101709365844727,0.25579962134361267,-3.7012298107147217,1.5352559089660645,-4.948357105255127,6.457630157470703,4.393222332000732,-0.28038692474365234,-3.269348382949829,1.3703224658966064,-5.018945693969727,6.611967086791992,6.690331935882568,-0.32009315490722656,-2.3144140243530273,1.5873321294784546,-5.267798900604248,6.176473617553711,8.426324844360352,-0.05803215503692627,-1.2702933549880981,2.101680278778076,-4.31007194519043,5.495715618133545,7.615756034851074,0.06322450190782547,-0.7527381181716919,2.4959933757781982,-2.3605196475982666,4.37228536605835,6.334399700164795,-0.18356487154960632,-0.7686206102371216,2.480874538421631,-1.3100703954696655,4.289732933044434,6.144768714904785,-0.4679224193096161,-1.2263110876083374,2.299905776977539,0.26500511169433594,4.707878589630127,6.460621356964111,-0.7089085578918457,-1.6053526401519775,1.8866559267044067,0.1902294009923935,4.671986103057861,7.05763053894043,-0.8674280047416687,-1.896124243736267,1.525329351425171,-0.06580262631177902,5.117051124572754,8.390432357788086,-0.7238747477531433,-1.8603886365890503,1.4130829572677612,0.6185446381568909,5.277370452880859,8.689535140991211,-0.5406153202056885,-1.421024203300476,1.224936604499817,0.5252245664596558,5.1768717765808105,9.079565048217773,-0.35873034596443176,-0.7232639193534851,1.1311688423156738,0.9684949517250061,5.505286693572998,9.229715347290039,-0.13301581144332886,-0.0409279391169548,1.0233511924743652,1.2287144660949707,5.296513080596924,8.561519622802734,-0.04581485688686371,0.35185810923576355,0.8706350326538086,1.217348575592041,5.24327278137207,8.26121997833252,-0.06475166976451874,0.4494437575340271,0.7431169748306274,1.1694921255111694,5.188836097717285,8.175676345825195,-0.11835505068302155,0.3753764033317566,0.5839866995811462,0.6879364848136902,5.136193752288818,8.347960472106934,-0.15256348252296448,0.2283107042312622,0.48563748598098755,0.7926225066184998,5.309075355529785,8.858229637145996,-0.04581485688686371,0.1049160286784172,0.36972591280937195,0.7579265832901001,5.219344615936279,8.697312355041504,-0.006719512399286032,-0.04153880476951599,0.2600756883621216,0.7100701332092285,5.241477966308594,8.534002304077148,-0.004428769461810589,-0.235793799161911,0.1701258420944214,0.8470591902732849,5.278566837310791,8.58066177368164,0.009926552884280682,-0.22204934060573578,0.09269873052835464,0.5587241053581238,5.312066078186035,8.799007415771484,0.08155044913291931,-0.11285726726055145,0.1107192412018776,0.714257538318634,5.343770980834961,8.61595630645752,0.143553227186203,-0.0021380267571657896,0.09346231073141098,0.8147560954093933,5.3347978591918945,8.2695951461792,0.1185077652335167,0.11178825795650482,0.036193739622831345
