label,sub_label,user,file_id,mobile_accel_x0,mobile_accel_y0,mobile_accel_z0,mobile_gyros_x0,mobile_gyros_y0,mobile_gyros_z0,mobile_accel_x1,mobile_accel_y1,mobile_accel_z1,mobile_gyros_x1,mobile_gyros_y1,mobile_gyros_z1,mobile_accel_x2,mobile_accel_y2,mobile_accel_z2,mobile_gyros_x2,mobile_gyros_y2,mobile_gyros_z2,mobile_accel_x3,mobile_accel_y3,mobile_accel_z3,mobile_gyros_x3,mobile_gyros_y3,mobile_gyros_z3,mobile_accel_x4,mobile_accel_y4,mobile_accel_z4,mobile_gyros_x4,mobile_gyros_y4,mobile_gyros_z4,mobile_accel_x5,mobile_accel_y5,mobile_accel_z5,mobile_gyros_x5,mobile_gyros_y5,mobile_gyros_z5,mobile_accel_x6,mobile_accel_y6,mobile_accel_z6,mobile_gyros_x6,mobile_gyros_y6,mobile_gyros_z6,mobile_accel_x7,mobile_accel_y7,mobile_accel_z7,mobile_gyros_x7,mobile_gyros_y7,mobile_gyros_z7,mobile_accel_x8,mobile_accel_y8,mobile_accel_z8,mobile_gyros_x8,mobile_gyros_y8,mobile_gyros_z8,mobile_accel_x9,mobile_accel_y9,mobile_accel_z9,mobile_gyros_x9,mobile_gyros_y9,mobile_gyros_z9,mobile_accel_x10,mobile_accel_y10,mobile_accel_z10,mobile_gyros_x10,mobile_gyros_y10,mobile_gyros_z10,mobile_accel_x11,mobile_accel_y11,mobile_accel_z11,mobile_gyros_x11,mobile_gyros_y11,mobile_gyros_z11,mobile_accel_x12,mobile_accel_y12,mobile_accel_z12,mobile_gyros_x12,mobile_gyros_y12,mobile_gyros_z12,mobile_accel_x13,mobile_accel_y13,mobile_accel_z13,mobile_gyros_x13,mobile_gyros_y13,mobile_gyros_z13,mobile_accel_x14,mobile_accel_y14,mobile_accel_z14,mobile_gyros_x14,mobile_gyros_y14,mobile_gyros_z14,mobile_accel_x15,mobile_accel_y15,mobile_accel_z15,mobile_gyros_x15,mobile_gyros_y15,mobile_gyros_z15,mobile_accel_x16,mobile_accel_y16,mobile_accel_z16,mobile_gyros_x16,mobile_gyros_y16,mobile_gyros_z16,mobile_accel_x17,mobile_accel_y17,mobile_accel_z17,mobile_gyros_x17,mobile_gyros_y17,mobile_gyros_z17,mobile_accel_x18,mobile_accel_y18,mobile_accel_z18,mobile_gyros_x18,mobile_gyros_y18,mobile_gyros_z18,mobile_accel_x19,mobile_accel_y19,mobile_accel_z19,mobile_gyros_x19,mobile_gyros_y19,mobile_gyros_z19,mobile_accel_x20,mobile_accel_y20,mobile_accel_z20,mobile_gyros_x20,mobile_gyros_y20,mobile_gyros_z20,mobile_accel_x21,mobile_accel_y21,mobile_accel_z21,mobile_gyros_x21,mobile_gyros_y21,mobile_gyros_z21,mobile_accel_x22,mobile_accel_y22,mobile_accel_z22,mobile_gyros_x22,mobile_gyros_y22,mobile_gyros_z22,mobile_accel_x23,mobile_accel_y23,mobile_accel_z23,mobile_gyros_x23,mobile_gyros_y23,mobile_gyros_z23,mobile_accel_x24,mobile_accel_y24,mobile_accel_z24,mobile_gyros_x24,mobile_gyros_y24,mobile_gyros_z24,mobile_accel_x25,mobile_accel_y25,mobile_accel_z25,mobile_gyros_x25,mobile_gyros_y25,mobile_gyros_z25,mobile_accel_x26,mobile_accel_y26,mobile_accel_z26,mobile_gyros_x26,mobile_gyros_y26,mobile_gyros_z26,mobile_accel_x27,mobile_accel_y27,mobile_accel_z27,mobile_gyros_x27,mobile_gyros_y27,mobile_gyros_z27,mobile_accel_x28,mobile_accel_y28,mobile_accel_z28,mobile_gyros_x28,mobile_gyros_y28,mobile_gyros_z28,mobile_accel_x29,mobile_accel_y29,mobile_accel_z29,mobile_gyros_x29,mobile_gyros_y29,mobile_gyros_z29,mobile_accel_x30,mobile_accel_y30,mobile_accel_z30,mobile_gyros_x30,mobile_gyros_y30,mobile_gyros_z30,mobile_accel_x31,mobile_accel_y31,mobile_accel_z31,mobile_gyros_x31,mobile_gyros_y31,mobile_gyros_z31,mobile_accel_x32,mobile_accel_y32,mobile_accel_z32,mobile_gyros_x32,mobile_gyros_y32,mobile_gyros_z32,mobile_accel_x33,mobile_accel_y33,mobile_accel_z33,mobile_gyros_x33,mobile_gyros_y33,mobile_gyros_z33,mobile_accel_x34,mobile_accel_y34,mobile_accel_z34,mobile_gyros_x34,mobile_gyros_y34,mobile_gyros_z34,mobile_accel_x35,mobile_accel_y35,mobile_accel_z35,mobile_gyros_x35,mobile_gyros_y35,mobile_gyros_z35,mobile_accel_x36,mobile_accel_y36,mobile_accel_z36,mobile_gyros_x36,mobile_gyros_y36,mobile_gyros_z36,mobile_accel_x37,mobile_accel_y37,mobile_accel_z37,mobile_gyros_x37,mobile_gyros_y37,mobile_gyros_z37,mobile_accel_x38,mobile_accel_y38,mobile_accel_z38,mobile_gyros_x38,mobile_gyros_y38,mobile_gyros_z38,mobile_accel_x39,mobile_accel_y39,mobile_accel_z39,mobile_gyros_x39,mobile_gyros_y39,mobile_gyros_z39,mobile_accel_x40,mobile_accel_y40,mobile_accel_z40,mobile_gyros_x40,mobile_gyros_y40,mobile_gyros_z40,mobile_accel_x41,mobile_accel_y41,mobile_accel_z41,mobile_gyros_x41,mobile_gyros_y41,mobile_gyros_z41,mobile_accel_x42,mobile_accel_y42,mobile_accel_z42,mobile_gyros_x42,mobile_gyros_y42,mobile_gyros_z42,mobile_accel_x43,mobile_accel_y43,mobile_accel_z43,mobile_gyros_x43,mobile_gyros_y43,mobile_gyros_z43,mobile_accel_x44,mobile_accel_y44,mobile_accel_z44,mobile_gyros_x44,mobile_gyros_y44,mobile_gyros_z44,mobile_accel_x45,mobile_accel_y45,mobile_accel_z45,mobile_gyros_x45,mobile_gyros_y45,mobile_gyros_z45,mobile_accel_x46,mobile_accel_y46,mobile_accel_z46,mobile_gyros_x46,mobile_gyros_y46,mobile_gyros_z46,mobile_accel_x47,mobile_accel_y47,mobile_accel_z47,mobile_gyros_x47,mobile_gyros_y47,mobile_gyros_z47,mobile_accel_x48,mobile_accel_y48,mobile_accel_z48,mobile_gyros_x48,mobile_gyros_y48,mobile_gyros_z48,mobile_accel_x49,mobile_accel_y49,mobile_accel_z49,mobile_gyros_x49,mobile_gyros_y49,mobile_gyros_z49
shake,10201,206,206_10201_260413222201423,4.758127689361572,3.181257724761963,7.256833076477051,0.7351757884025574,4.54819393157959,-3.700007915496826,2.160120725631714,2.541177749633789,5.412564754486084,0.5984947681427002,4.400670051574707,-4.732064247131348,-0.7501499056816101,1.674975872039795,4.262813568115234,-0.014813470654189587,3.2455246448516846,-5.457313060760498,-6.238687038421631,1.0085747241973877,5.457430362701416,-0.4969384968280792,1.6009238958358765,-5.177995204925537,-11.24925708770752,2.8109683990478516,9.196813583374023,-0.21609342098236084,0.2733619809150696,-3.8038549423217773,-13.779068946838379,5.176273345947266,11.274980545043945,0.7588467597961426,-0.5129737257957458,-2.076024055480957,-13.40279769897461,5.597410202026367,8.520243644714355,1.0314451456069946,-0.8350521326065063,-0.5655080676078796,-11.67996597290039,5.37906551361084,5.6069817543029785,0.5140427350997925,-1.0713040828704834,0.5387827157974243,-10.17727279663086,5.232504844665527,6.406782627105713,0.39477136731147766,-1.2721259593963623,1.258992314338684,-9.81236743927002,5.176273345947266,8.336593627929688,0.8260418772697449,-1.4121665954589844,1.9992077350616455,-10.053443908691406,5.358128070831299,8.251648902893066,1.2340996265411377,-1.7847942113876343,2.9098544120788574,-9.54078197479248,5.468197822570801,6.865606307983398,1.3180934190750122,-2.218202829360962,3.9046475887298584,-7.164111137390137,4.712066173553467,5.070989608764648,0.9911280870437622,-2.4799582958221436,4.510778427124023,-3.9559340476989746,4.289134502410889,3.8189449310302734,0.4042397737503052,-2.7598869800567627,4.561938285827637,-1.3794622421264648,4.165306091308594,3.432504177093506,-0.2098320573568344,-3.11281418800354,4.359283924102783,1.0372886657714844,4.040879249572754,3.1106693744659424,-0.838259220123291,-3.1335835456848145,4.043161392211914,4.735994338989258,3.1519455909729004,2.9796624183654785,-1.4999784231185913,-2.4051272869110107,3.2907285690307617,10.15035343170166,2.276770830154419,5.499902725219727,-1.6013820171356201,-0.3964512348175049,1.4782928228378296,14.403595924377441,1.815554141998291,10.52064323425293,-0.5794052481651306,3.068221092224121,-1.2192860841751099,13.49193000793457,0.8201399445533752,11.688340187072754,1.0835213661193848,6.147437572479248,-3.6500697135925293,8.61595630645752,-0.14835500717163086,8.755936622619629,2.120311737060547,7.6545939445495605,-5.13615083694458,2.42512583732605,1.0498509407043457,3.342175006866455,1.8347324132919312,6.650790214538574,-5.915003776550293,-7.225128173828125,2.221735715866089,-1.4739787578582764,-0.12812888622283936,3.0999860763549805,-5.508320331573486,-15.714862823486328,3.7531423568725586,0.17228323221206665,-2.0021092891693115,-0.6328558921813965,-3.5558438301086426,-16.535600662231445,6.16271448135376,9.518648147583008,-1.643073558807373,-1.9211697578430176,-1.518609881401062,-14.46341609954834,6.4187469482421875,13.487743377685547,0.21517711877822876,-1.831678032875061,0.1649334877729416,-10.831111907958984,5.398207664489746,10.205986976623535,1.00762140750885,-1.3910918235778809,1.1094831228256226,-7.347760200500488,4.867001056671143,6.37747049331665,0.6183478832244873,-1.3332123756408691,1.4010183811187744,-4.965705394744873,4.750949382781982,5.285147190093994,-0.08399390429258347,-1.5558725595474243,1.3142756223678589,-3.6610186100006104,4.802993297576904,6.8004021644592285,-0.3845393657684326,-1.6694934368133545,1.1362085342407227,-3.892524242401123,4.789234638214111,8.957531929016113,-0.13530655205249786,-1.433088779449463,1.179121732711792,-3.9565322399139404,4.8466620445251465,9.531808853149414,0.2185368686914444,-1.0348049402236938,1.3765838146209717,-3.70767879486084,4.810770034790039,8.82114028930664,0.3283398151397705,-0.7886264324188232,1.5674790143966675,-3.2410783767700195,4.8227338790893555,8.170292854309082,0.21655155718326569,-0.8701768517494202,1.682016134262085,-2.6799614429473877,5.000999450683594,7.781459331512451,0.03695731982588768,-1.1487312316894531,1.7250821590423584,-1.3142578601837158,4.782055854797363,8.157731056213379,-0.031612250953912735,-1.2786927223205566,1.525940179824829,-0.6161518096923828,4.72163724899292,8.575876235961914,0.05803215503692627,-1.2066106796264648,1.2661700248718262,-0.3475574851036072,5.026721954345703,8.569295883178711,0.17653992772102356,-0.9593631625175476,1.071456789970398,-0.019142581149935722,5.126622676849365,8.163114547729492,0.21410810947418213,-0.6678279042243958,0.8906408548355103,0.24586252868175507,5.1667022705078125,7.898109436035156,0.21227550506591797,-0.30482152104377747,0.6982184648513794,0.3696911036968231,5.252843856811523,7.853243827819824,0.22495095431804657,-0.007330377586185932,0.5128209590911865,0.36729827523231506,5.313860893249512,7.549953460693359,0.17195843160152435,0.11728604137897491,0.3364337682723999,0.13040883839130402,5.32821798324585,7.438089370727539,0.07880155742168427,0.14599667489528656,0.2179260104894638,-0.1788634955883026,5.400002479553223,7.826324462890625,0.08903354406356812,0.1724165827035904,0.187382772564888,-0.5581258535385132,5.350351333618164,8.13679313659668,0.14752385020256042,0.19425499439239502,0.21838416159152985,-0.8374879360198975,5.543571949005127,8.097311973571777,0.18173226714134216,0.16584978997707367,0.2993237376213074,-0.6813562512397766,5.624927997589111,7.7940216064453125,0.11377356201410294,0.05222893878817558,0.3168860971927643,-0.33499518036842346,5.640480995178223,7.704888820648193,0.005039634648710489,-0.06505709886550903,0.2464839369058609,-0.10648060590028763,5.644070625305176,8.057829856872559,-0.005955931730568409,-0.07559451460838318,0.1438586562871933,-0.1579262912273407,5.581857204437256,8.287541389465332,0.04535670951008797,-0.05436696484684944,0.08155044913291931
