label,sub_label,user,file_id,mobile_accel_x0,mobile_accel_y0,mobile_accel_z0,mobile_gyros_x0,mobile_gyros_y0,mobile_gyros_z0,mobile_accel_x1,mobile_accel_y1,mobile_accel_z1,mobile_gyros_x1,mobile_gyros_y1,mobile_gyros_z1,mobile_accel_x2,mobile_accel_y2,mobile_accel_z2,mobile_gyros_x2,mobile_gyros_y2,mobile_gyros_z2,mobile_accel_x3,mobile_accel_y3,mobile_accel_z3,mobile_gyros_x3,mobile_gyros_y3,mobile_gyros_z3,mobile_accel_x4,mobile_accel_y4,mobile_accel_z4,mobile_gyros_x4,mobile_gyros_y4,mobile_gyros_z4,mobile_accel_x5,mobile_accel_y5,mobile_accel_z5,mobile_gyros_x5,mobile_gyros_y5,mobile_gyros_z5,mobile_accel_x6,mobile_accel_y6,mobile_accel_z6,mobile_gyros_x6,mobile_gyros_y6,mobile_gyros_z6,mobile_accel_x7,mobile_accel_y7,mobile_accel_z7,mobile_gyros_x7,mobile_gyros_y7,mobile_gyros_z7,mobile_accel_x8,mobile_accel_y8,mobile_accel_z8,mobile_gyros_x8,mobile_gyros_y8,mobile_gyros_z8,mobile_accel_x9,mobile_accel_y9,mobile_accel_z9,mobile_gyros_x9,mobile_gyros_y9,mobile_gyros_z9,mobile_accel_x10,mobile_accel_y10,mobile_accel_z10,mobile_gyros_x10,mobile_gyros_y10,mobile_gyros_z10,mobile_accel_x11,mobile_accel_y11,mobile_accel_z11,mobile_gyros_x11,mobile_gyros_y11,mobile_gyros_z11,mobile_accel_x12,mobile_accel_y12,mobile_accel_z12,mobile_gyros_x12,mobile_gyros_y12,mobile_gyros_z12,mobile_accel_x13,mobile_accel_y13,mobile_accel_z13,mobile_gyros_x13,mobile_gyros_y13,mobile_gyros_z13,mobile_accel_x14,mobile_accel_y14,mobile_accel_z14,mobile_gyros_x14,mobile_gyros_y14,mobile_gyros_z14,mobile_accel_x15,mobile_accel_y15,mobile_accel_z15,mobile_gyros_x15,mobile_gyros_y15,mobile_gyros_z15,mobile_accel_x16,mobile_accel_y16,mobile_accel_z16,mobile_gyros_x16,mobile_gyros_y16,mobile_gyros_z16,mobile_accel_x17,mobile_accel_y17,mobile_accel_z17,mobile_gyros_x17,mobile_gyros_y17,mobile_gyros_z17,mobile_accel_x18,mobile_accel_y18,mobile_accel_z18,mobile_gyros_x18,mobile_gyros_y18,mobile_gyros_z18,mobile_accel_x19,mobile_accel_y19,mobile_accel_z19,mobile_gyros_x19,mobile_gyros_y19,mobile_gyros_z19,mobile_accel_x20,mobile_accel_y20,mobile_accel_z20,mobile_gyros_x20,mobile_gyros_y20,mobile_gyros_z20,mobile_accel_x21,mobile_accel_y21,mobile_accel_z21,mobile_gyros_x21,mobile_gyros_y21,mobile_gyros_z21,mobile_accel_x22,mobile_accel_y22,mobile_accel_z22,mobile_gyros_x22,mobile_gyros_y22,mobile_gyros_z22,mobile_accel_x23,mobile_accel_y23,mobile_accel_z23,mobile_gyros_x23,mobile_gyros_y23,mobile_gyros_z23,mobile_accel_x24,mobile_accel_y24,mobile_accel_z24,mobile_gyros_x24,mobile_gyros_y24,mobile_gyros_z24,mobile_accel_x25,mobile_accel_y25,mobile_accel_z25,mobile_gyros_x25,mobile_gyros_y25,mobile_gyros_z25,mobile_accel_x26,mobile_accel_y26,mobile_accel_z26,mobile_gyros_x26,mobile_gyros_y26,mobile_gyros_z26,mobile_accel_x27,mobile_accel_y27,mobile_accel_z27,mobile_gyros_x27,mobile_gyros_y27,mobile_gyros_z27,mobile_accel_x28,mobile_accel_y28,mobile_accel_z28,mobile_gyros_x28,mobile_gyros_y28,mobile_gyros_z28,mobile_accel_x29,mobile_accel_y29,mobile_accel_z29,mobile_gyros_x29,mobile_gyros_y29,mobile_gyros_z29,mobile_accel_x30,mobile_accel_y30,mobile_accel_z30,mobile_gyros_x30,mobile_gyros_y30,mobile_gyros_z30,mobile_accel_x31,mobile_accel_y31,mobile_accel_z31,mobile_gyros_x31,mobile_gyros_y31,mobile_gyros_z31,mobile_accel_x32,mobile_accel_y32,mobile_accel_z32,mobile_gyros_x32,mobile_gyros_y32,mobile_gyros_z32,mobile_accel_x33,mobile_accel_y33,mobile_accel_z33,mobile_gyros_x33,mobile_gyros_y33,mobile_gyros_z33,mobile_accel_x34,mobile_accel_y34,mobile_accel_z34,mobile_gyros_x34,mobile_gyros_y34,mobile_gyros_z34,mobile_accel_x35,mobile_accel_y35,mobile_accel_z35,mobile_gyros_x35,mobile_gyros_y35,mobile_gyros_z35,mobile_accel_x36,mobile_accel_y36,mobile_accel_z36,mobile_gyros_x36,mobile_gyros_y36,mobile_gyros_z36,mobile_accel_x37,mobile_accel_y37,mobile_accel_z37,mobile_gyros_x37,mobile_gyros_y37,mobile_gyros_z37,mobile_accel_x38,mobile_accel_y38,mobile_accel_z38,mobile_gyros_x38,mobile_gyros_y38,mobile_gyros_z38,mobile_accel_x39,mobile_accel_y39,mobile_accel_z39,mobile_gyros_x39,mobile_gyros_y39,mobile_gyros_z39,mobile_accel_x40,mobile_accel_y40,mobile_accel_z40,mobile_gyros_x40,mobile_gyros_y40,mobile_gyros_z40,mobile_accel_x41,mobile_accel_y41,mobile_accel_z41,mobile_gyros_x41,mobile_gyros_y41,mobile_gyros_z41,mobile_accel_x42,mobile_accel_y42,mobile_accel_z42,mobile_gyros_x42,mobile_gyros_y42,mobile_gyros_z42,mobile_accel_x43,mobile_accel_y43,mobile_accel_z43,mobile_gyros_x43,mobile_gyros_y43,mobile_gyros_z43,mobile_accel_x44,mobile_accel_y44,mobile_accel_z44,mobile_gyros_x44,mobile_gyros_y44,mobile_gyros_z44,mobile_accel_x45,mobile_accel_y45,mobile_accel_z45,mobile_gyros_x45,mobile_gyros_y45,mobile_gyros_z45,mobile_accel_x46,mobile_accel_y46,mobile_accel_z46,mobile_gyros_x46,mobile_gyros_y46,mobile_gyros_z46,mobile_accel_x47,mobile_accel_y47,mobile_accel_z47,mobile_gyros_x47,mobile_gyros_y47,mobile_gyros_z47,mobile_accel_x48,mobile_accel_y48,mobile_accel_z48,mobile_gyros_x48,mobile_gyros_y48,mobile_gyros_z48,mobile_accel_x49,mobile_accel_y49,mobile_accel_z49,mobile_gyros_x49,mobile_gyros_y49,mobile_gyros_z49,mobile_accel_x50,mobile_accel_y50,mobile_accel_z50,mobile_gyros_x50,mobile_gyros_y50,mobile_gyros_z50
shake,10201,206,206_10201_260413222326755,19.23051643371582,-0.5952146053314209,4.797011375427246,0.8277217745780945,2.7146830558776855,-1.3721550703048706,21.098115921020508,-1.4422738552093506,4.265804767608643,0.4277580678462982,4.708393096923828,-4.230238437652588,18.990636825561523,-4.008575916290283,3.6017963886260986,0.1773035079240799,6.100400924682617,-7.121614456176758,12.774084091186523,-7.250252723693848,3.617947816848755,0.09834922850131989,6.259531497955322,-9.644791603088379,2.5782663822174072,-10.116853713989258,5.400002479553223,0.33169957995414734,4.75039005279541,-10.898285865783691,-13.436297416687012,-9.460023880004883,8.089534759521484,0.8265000581741333,1.4814997911453247,-9.734129905700684,-29.323442459106445,1.2472587823867798,10.52064323425293,1.0577123165130615,-2.0599887371063232,-5.2795515060424805,-27.528228759765625,9.185447692871094,10.343574523925781,0.5807796716690063,-2.6468770503997803,-0.30802857875823975,-15.65683650970459,8.565108299255371,8.561519622802734,0.026878049597144127,-1.2218822240829468,1.7305799722671509,-10.39083194732666,7.6151580810546875,10.952547073364258,0.347582072019577,-0.07574722915887833,2.12580943107605,-11.562119483947754,7.144968509674072,11.962916374206543,1.2327251434326172,-0.45998117327690125,2.8600687980651855,-12.951750755310059,5.498706340789795,9.210572242736816,1.606727123260498,-1.7956370115280151,4.249175548553467,-11.58963680267334,3.5395829677581787,5.757131099700928,1.299156665802002,-3.296684503555298,5.850252151489258,-4.739583492279053,1.0067801475524902,3.07417893409729,0.74540776014328,-4.120283126831055,6.346426963806152,1.4105689525604248,-0.8003991842269897,2.7696921825408936,0.24434591829776764,-3.7898051738739014,5.911491394042969,4.822135925292969,-1.3609179258346558,3.0035905838012695,-0.021991131827235222,-3.04821515083313,5.314370632171631,8.261817932128906,-1.3052847385406494,4.037888050079346,0.07009673118591309,-2.001193046569824,4.579042434692383,13.271790504455566,-0.3762713670730591,5.091926574707031,0.43631017208099365,-0.5699368119239807,3.2146759033203125,19.24966049194336,0.7148557901382446,6.244070529937744,1.018311619758606,1.6071852445602417,0.9845613241195679,25.11686134338379,0.9415757060050964,5.804987907409668,1.5627448558807373,4.462520122528076,-2.4077234268188477,24.836301803588867,-1.0875378847122192,4.036093711853027,1.8987205028533936,7.274788856506348,-6.258615016937256,16.901103973388672,-5.834897994995117,1.5487544536590576,2.327547550201416,8.869604110717773,-9.365167617797852,5.229514122009277,-10.670792579650879,-0.8889335989952087,2.4411683082580566,8.246521949768066,-11.062456130981445,-11.2576322555542,-12.284751892089844,-0.6017948985099792,2.198807716369629,4.759705543518066,-10.859190940856934,-33.01915740966797,-1.4949159622192383,1.0480563640594482,1.1928662061691284,-1.360395908355713,-6.750666618347168,-35.04887008666992,11.126625061035156,7.674380302429199,0.2657261788845062,-4.653720378875732,-0.9795216917991638,-19.458433151245117,9.535996437072754,6.9236321449279785,0.1487455666065216,-4.430602073669434,1.6476550102233887,-8.487939834594727,7.76052188873291,5.886343479156494,-0.2503018379211426,-2.8374669551849365,1.6100867986679077,-6.267998695373535,7.787441253662109,7.70967435836792,-0.2522871494293213,-1.716988205909729,1.1296416521072388,-7.03788948059082,6.591030120849609,8.974879264831543,0.09346231073141098,-1.4593559503555298,1.1568251848220825,-6.6490559577941895,4.932205677032471,8.37846851348877,0.37232208251953125,-1.8570289611816406,1.461493968963623,-4.858626365661621,3.726821184158325,6.527620315551758,0.29733842611312866,-2.475224018096924,1.7232495546340942,-2.6703901290893555,3.008974552154541,5.14576530456543,-0.07651081681251526,-2.919933557510376,1.7385212182998657,-0.6400800347328186,2.7930221557617188,5.219942569732666,-0.37003132700920105,-3.07326078414917,1.5302162170410156,0.9158528447151184,3.380460262298584,6.105287075042725,-0.4679224193096161,-2.796539068222046,1.2005020380020142,1.7132610082626343,4.402793884277344,7.028916358947754,-0.36651885509490967,-2.2582144737243652,0.916297197341919,1.726421594619751,5.347360610961914,7.439883708953857,-0.2364046722650528,-1.5581632852554321,0.7231112122535706,1.3525429964065552,5.882754325866699,7.846663475036621,-0.13179408013820648,-0.8199332356452942,0.6685914993286133,0.9655039310455322,5.961119174957275,8.10389232635498,-0.07559451460838318,-0.19440771639347076,0.6730202436447144,0.5168496966362,5.768496990203857,8.508877754211426,-0.04917461425065994,0.22678354382514954,0.732121467590332,0.0975075215101242,5.522634506225586,8.793025016784668,0.013897174037992954,0.3040579557418823,0.8567378520965576,0.39122650027275085,5.26600456237793,8.641080856323242,0.010690134018659592,0.16447533667087555,0.9358448386192322,1.2873386144638062,5.136792182922363,8.694320678710938,-0.011606430634856224,0.04764745384454727,0.8440623879432678,1.6893328428268433,4.978865623474121,8.749356269836426,-0.033597562462091446,-0.029016077518463135,0.653167188167572,1.8388842344284058,4.694717884063721,8.914461135864258,0.02611446939408779,-0.10674861818552017,0.44379326701164246,2.0757737159729004,4.49252462387085,8.736793518066406,0.10201441496610641,-0.12843431532382965,0.21288637816905975,1.9728822708129883,4.4189453125,8.419146537780762,0.11209368705749512,-0.09086613357067108,0.007635809946805239,1.5852450132369995,4.639084815979004,8.451449394226074,0.1380554437637329,0.017867794260382652,-0.05558869615197182,1.568495273590088,4.886143684387207,8.438288688659668,0.18325942754745483,0.1380554437637329,-0.0539088174700737,1.6737794876098633,5.1050872802734375,8.286943435668945,0.17883066833019257,0.22479823231697083,-0.06612611562013626,1.657029628753662,5.383851051330566,8.252246856689453,0.12950333952903748,0.28008151054382324,-0.12965604662895203
