label,sub_label,user,file_id,watch_accel_x0,watch_accel_y0,watch_accel_z0,watch_gyros_x0,watch_gyros_y0,watch_gyros_z0,watch_accel_x1,watch_accel_y1,watch_accel_z1,watch_gyros_x1,watch_gyros_y1,watch_gyros_z1,watch_accel_x2,watch_accel_y2,watch_accel_z2,watch_gyros_x2,watch_gyros_y2,watch_gyros_z2,watch_accel_x3,watch_accel_y3,watch_accel_z3,watch_gyros_x3,watch_gyros_y3,watch_gyros_z3,watch_accel_x4,watch_accel_y4,watch_accel_z4,watch_gyros_x4,watch_gyros_y4,watch_gyros_z4,watch_accel_x5,watch_accel_y5,watch_accel_z5,watch_gyros_x5,watch_gyros_y5,watch_gyros_z5,watch_accel_x6,watch_accel_y6,watch_accel_z6,watch_gyros_x6,watch_gyros_y6,watch_gyros_z6,watch_accel_x7,watch_accel_y7,watch_accel_z7,watch_gyros_x7,watch_gyros_y7,watch_gyros_z7,watch_accel_x8,watch_accel_y8,watch_accel_z8,watch_gyros_x8,watch_gyros_y8,watch_gyros_z8,watch_accel_x9,watch_accel_y9,watch_accel_z9,watch_gyros_x9,watch_gyros_y9,watch_gyros_z9,watch_accel_x10,watch_accel_y10,watch_accel_z10,watch_gyros_x10,watch_gyros_y10,watch_gyros_z10,watch_accel_x11,watch_accel_y11,watch_accel_z11,watch_gyros_x11,watch_gyros_y11,watch_gyros_z11,watch_accel_x12,watch_accel_y12,watch_accel_z12,watch_gyros_x12,watch_gyros_y12,watch_gyros_z12,watch_accel_x13,watch_accel_y13,watch_accel_z13,watch_gyros_x13,watch_gyros_y13,watch_gyros_z13,watch_accel_x14,watch_accel_y14,watch_accel_z14,watch_gyros_x14,watch_gyros_y14,watch_gyros_z14,watch_accel_x15,watch_accel_y15,watch_accel_z15,watch_gyros_x15,watch_gyros_y15,watch_gyros_z15,watch_accel_x16,watch_accel_y16,watch_accel_z16,watch_gyros_x16,watch_gyros_y16,watch_gyros_z16,watch_accel_x17,watch_accel_y17,watch_accel_z17,watch_gyros_x17,watch_gyros_y17,watch_gyros_z17,watch_accel_x18,watch_accel_y18,watch_accel_z18,watch_gyros_x18,watch_gyros_y18,watch_gyros_z18,watch_accel_x19,watch_accel_y19,watch_accel_z19,watch_gyros_x19,watch_gyros_y19,watch_gyros_z19,watch_accel_x20,watch_accel_y20,watch_accel_z20,watch_gyros_x20,watch_gyros_y20,watch_gyros_z20,watch_accel_x21,watch_accel_y21,watch_accel_z21,watch_gyros_x21,watch_gyros_y21,watch_gyros_z21,watch_accel_x22,watch_accel_y22,watch_accel_z22,watch_gyros_x22,watch_gyros_y22,watch_gyros_z22,watch_accel_x23,watch_accel_y23,watch_accel_z23,watch_gyros_x23,watch_gyros_y23,watch_gyros_z23,watch_accel_x24,watch_accel_y24,watch_accel_z24,watch_gyros_x24,watch_gyros_y24,watch_gyros_z24,watch_accel_x25,watch_accel_y25,watch_accel_z25,watch_gyros_x25,watch_gyros_y25,watch_gyros_z25,watch_accel_x26,watch_accel_y26,watch_accel_z26,watch_gyros_x26,watch_gyros_y26,watch_gyros_z26,watch_accel_x27,watch_accel_y27,watch_accel_z27,watch_gyros_x27,watch_gyros_y27,watch_gyros_z27,watch_accel_x28,watch_accel_y28,watch_accel_z28,watch_gyros_x28,watch_gyros_y28,watch_gyros_z28,watch_accel_x29,watch_accel_y29,watch_accel_z29,watch_gyros_x29,watch_gyros_y29,watch_gyros_z29,watch_accel_x30,watch_accel_y30,watch_accel_z30,watch_gyros_x30,watch_gyros_y30,watch_gyros_z30,watch_accel_x31,watch_accel_y31,watch_accel_z31,watch_gyros_x31,watch_gyros_y31,watch_gyros_z31,watch_accel_x32,watch_accel_y32,watch_accel_z32,watch_gyros_x32,watch_gyros_y32,watch_gyros_z32,watch_accel_x33,watch_accel_y33,watch_accel_z33,watch_gyros_x33,watch_gyros_y33,watch_gyros_z33,watch_accel_x34,watch_accel_y34,watch_accel_z34,watch_gyros_x34,watch_gyros_y34,watch_gyros_z34,watch_accel_x35,watch_accel_y35,watch_accel_z35,watch_gyros_x35,watch_gyros_y35,watch_gyros_z35,watch_accel_x36,watch_accel_y36,watch_accel_z36,watch_gyros_x36,watch_gyros_y36,watch_gyros_z36,watch_accel_x37,watch_accel_y37,watch_accel_z37,watch_gyros_x37,watch_gyros_y37,watch_gyros_z37,watch_accel_x38,watch_accel_y38,watch_accel_z38,watch_gyros_x38,watch_gyros_y38,watch_gyros_z38,watch_accel_x39,watch_accel_y39,watch_accel_z39,watch_gyros_x39,watch_gyros_y39,watch_gyros_z39,watch_accel_x40,watch_accel_y40,watch_accel_z40,watch_gyros_x40,watch_gyros_y40,watch_gyros_z40,watch_accel_x41,watch_accel_y41,watch_accel_z41,watch_gyros_x41,watch_gyros_y41,watch_gyros_z41,watch_accel_x42,watch_accel_y42,watch_accel_z42,watch_gyros_x42,watch_gyros_y42,watch_gyros_z42,watch_accel_x43,watch_accel_y43,watch_accel_z43,watch_gyros_x43,watch_gyros_y43,watch_gyros_z43,watch_accel_x44,watch_accel_y44,watch_accel_z44,watch_gyros_x44,watch_gyros_y44,watch_gyros_z44,watch_accel_x45,watch_accel_y45,watch_accel_z45,watch_gyros_x45,watch_gyros_y45,watch_gyros_z45,watch_accel_x46,watch_accel_y46,watch_accel_z46,watch_gyros_x46,watch_gyros_y46,watch_gyros_z46,watch_accel_x47,watch_accel_y47,watch_accel_z47,watch_gyros_x47,watch_gyros_y47,watch_gyros_z47
shake,10201,208,208_10201_260414155049615,5.449203014373779,-6.536170482635498,-5.9088897705078125,0.48380526900291443,0.41172316670417786,0.19303341209888458,4.9152960777282715,-5.535394191741943,-4.54419469833374,0.5180137157440186,0.5192354321479797,0.3090978264808655,5.3797712326049805,-5.018246650695801,-3.7924153804779053,-0.10262536257505417,0.3628539443016052,0.5693264007568359,5.901707172393799,-5.521028995513916,-3.6320040225982666,-0.5351179838180542,0.21868975460529327,0.7000515460968018,6.121973514556885,-5.552153587341309,-5.698200225830078,-1.1154398918151855,0.14538592100143433,0.9236282706260681,4.441244125366211,-6.607996463775635,-8.820239067077637,-0.4703662395477295,0.32620203495025635,0.7428121566772461,2.0470423698425293,-6.617573261260986,-6.399701118469238,-0.05742133408784866,0.7428121566772461,0.39584067463874817,4.623203277587891,-7.137115478515625,-4.9152960777282715,-0.09407325088977814,-0.13805554807186127,0.05009094998240471,7.1706342697143555,-7.146692276000977,-3.095702886581421,-0.27000242471694946,-0.5534439086914062,-0.14905111491680145,7.745242595672607,-6.572083473205566,-3.845088005065918,-0.32620203495025635,-0.6255260109901428,-0.455705463886261,6.643909931182861,-5.95677375793457,-5.147533416748047,-0.24556782841682434,-0.42760565876960754,-0.5436700582504272,6.574477672576904,-5.396530628204346,-7.0557122230529785,-0.22846360504627228,-0.3995058834552765,-0.43737950921058655,6.868964672088623,-5.91128396987915,-7.067683219909668,-0.5057964324951172,-0.015882495790719986,-0.2223549485206604,5.686229228973389,-7.690176010131836,-4.28322696685791,-0.4092797040939331,0.3933972120285034,-0.17348572611808777,3.648763418197632,-8.4108304977417,-4.108449935913086,-0.10018189996480942,0.3897320330142975,-0.18936823308467865,3.0789434909820557,-5.60722017288208,-4.000710964202881,0.1417207419872284,-0.019547687843441963,0.18814650177955627,3.4332852363586426,-2.360682964324951,-6.414066314697266,-0.08674286305904388,-0.059864792972803116,0.5363397002220154,3.4979286193847656,-1.699883222579956,-7.879317760467529,-1.8154915571212769,0.14905111491680145,1.0384708642959595,3.6583402156829834,-4.345476150512695,-9.995792388916016,-2.4251351356506348,0.1270599663257599,1.1594222784042358,3.931279182434082,-6.100425720214844,-9.457097053527832,-1.9266690015792847,0.19792033731937408,1.0409144163131714,4.553771495819092,-6.572083473205566,-7.807491779327393,-0.8124507665634155,0.17348572611808777,0.5571091175079346,5.3127336502075195,-6.411672115325928,-5.805939197540283,-0.2919935882091522,-0.004886921960860491,0.2125810980796814,5.540182590484619,-5.9519853591918945,-5.336675643920898,0.4153883755207062,-0.2577851414680481,-0.2626720666885376,6.423643112182617,-6.186617374420166,-5.3127336502075195,0.5974262356758118,-0.4288274049758911,-0.41172316670417786,7.084442615509033,-6.538564682006836,-6.279991149902344,0.6829473376274109,-0.44104471802711487,-0.4911356568336487,7.005434036254883,-6.710947513580322,-6.2201361656188965,0.978606104850769,-0.2431243658065796,-0.49235737323760986,6.212953567504883,-6.830657482147217,-7.15387487411499,1.1313223838806152,-0.0806342139840126,-0.4642575979232788,5.791574001312256,-6.852205276489258,-6.22731876373291,1.7336355447769165,0.030543262138962746,-0.3799581825733185,5.035006046295166,-6.435614109039307,-5.868188381195068,2.1087067127227783,0.04398229718208313,-0.38606682419776917,4.446032524108887,-6.030993938446045,-4.7836151123046875,2.2675318717956543,-0.02687807008624077,-0.3530801236629486,4.151545524597168,-6.224924564361572,-4.14915132522583,1.8203784227371216,-0.22113321721553802,-0.2968805134296417,4.299986362457275,-6.445190906524658,-4.371812343597412,1.2669345140457153,-0.32131510972976685,-0.2834414839744568,4.611232280731201,-6.53377628326416,-4.795586109161377,0.5363397002220154,-0.384845107793808,-0.2382374405860901,5.04218864440918,-6.57926607131958,-5.348646640777588,0.16004669666290283,-0.32498031854629517,-0.19914206862449646,5.329493045806885,-6.507440090179443,-5.808333396911621,0.039095375686883926,-0.2565633952617645,-0.1722639948129654,5.485116004943848,-6.435614109039307,-5.882553577423096,0.13561208546161652,-0.14782938361167908,-0.10751228034496307,5.463568210601807,-6.270414352416992,-5.846640586853027,0.18081611394882202,-0.0806342139840126,-0.09407325088977814,5.274426460266113,-6.09324312210083,-5.631162166595459,0.23090706765651703,-0.03298672288656235,-0.07208210229873657,5.212177276611328,-5.978321552276611,-5.394136428833008,0.13805554807186127,-0.019547687843441963,-0.06841690838336945,5.0469770431518555,-6.14831018447876,-5.214571475982666,0.1160643994808197,-0.021991148591041565,-0.06719517707824707,5.173870086669922,-6.229712963104248,-5.207388877868652,-0.018325956538319588,-0.03787364438176155,-0.08307767659425735,5.082890033721924,-6.478709697723389,-5.116408824920654,-0.08796459436416626,-0.03420845419168472,-0.07452555745840073,5.185841083526611,-6.50025749206543,-5.245696067810059,-0.10873401165008545,-0.05009094998240471,-0.0659734457731247,5.231330871582031,-6.5481414794921875,-5.152322292327881,-0.06719517707824707,-0.030543262138962746,-0.03787364438176155,5.2480902671813965,-6.509834289550781,-5.106832027435303,-0.0024434609804302454,-0.02932153269648552,-0.010995574295520782,5.322310447692871,-6.528987884521484,-5.137956619262695,-0.05253441259264946,-0.013439035043120384,0.039095375686883926,5.20978307723999,-6.823474884033203,-5.008669853210449,-0.03176499158143997,0.010995574295520782,0.05742133408784866,5.214571475982666,-6.66785192489624,-5.0900726318359375,-0.012217304669320583,-0.013439035043120384,0.04886921867728233
