label,sub_label,user,file_id,watch_accel_x0,watch_accel_y0,watch_accel_z0,watch_gyros_x0,watch_gyros_y0,watch_gyros_z0,watch_accel_x1,watch_accel_y1,watch_accel_z1,watch_gyros_x1,watch_gyros_y1,watch_gyros_z1,watch_accel_x2,watch_accel_y2,watch_accel_z2,watch_gyros_x2,watch_gyros_y2,watch_gyros_z2,watch_accel_x3,watch_accel_y3,watch_accel_z3,watch_gyros_x3,watch_gyros_y3,watch_gyros_z3,watch_accel_x4,watch_accel_y4,watch_accel_z4,watch_gyros_x4,watch_gyros_y4,watch_gyros_z4,watch_accel_x5,watch_accel_y5,watch_accel_z5,watch_gyros_x5,watch_gyros_y5,watch_gyros_z5,watch_accel_x6,watch_accel_y6,watch_accel_z6,watch_gyros_x6,watch_gyros_y6,watch_gyros_z6,watch_accel_x7,watch_accel_y7,watch_accel_z7,watch_gyros_x7,watch_gyros_y7,watch_gyros_z7,watch_accel_x8,watch_accel_y8,watch_accel_z8,watch_gyros_x8,watch_gyros_y8,watch_gyros_z8,watch_accel_x9,watch_accel_y9,watch_accel_z9,watch_gyros_x9,watch_gyros_y9,watch_gyros_z9,watch_accel_x10,watch_accel_y10,watch_accel_z10,watch_gyros_x10,watch_gyros_y10,watch_gyros_z10,watch_accel_x11,watch_accel_y11,watch_accel_z11,watch_gyros_x11,watch_gyros_y11,watch_gyros_z11,watch_accel_x12,watch_accel_y12,watch_accel_z12,watch_gyros_x12,watch_gyros_y12,watch_gyros_z12,watch_accel_x13,watch_accel_y13,watch_accel_z13,watch_gyros_x13,watch_gyros_y13,watch_gyros_z13,watch_accel_x14,watch_accel_y14,watch_accel_z14,watch_gyros_x14,watch_gyros_y14,watch_gyros_z14,watch_accel_x15,watch_accel_y15,watch_accel_z15,watch_gyros_x15,watch_gyros_y15,watch_gyros_z15,watch_accel_x16,watch_accel_y16,watch_accel_z16,watch_gyros_x16,watch_gyros_y16,watch_gyros_z16,watch_accel_x17,watch_accel_y17,watch_accel_z17,watch_gyros_x17,watch_gyros_y17,watch_gyros_z17,watch_accel_x18,watch_accel_y18,watch_accel_z18,watch_gyros_x18,watch_gyros_y18,watch_gyros_z18,watch_accel_x19,watch_accel_y19,watch_accel_z19,watch_gyros_x19,watch_gyros_y19,watch_gyros_z19,watch_accel_x20,watch_accel_y20,watch_accel_z20,watch_gyros_x20,watch_gyros_y20,watch_gyros_z20,watch_accel_x21,watch_accel_y21,watch_accel_z21,watch_gyros_x21,watch_gyros_y21,watch_gyros_z21,watch_accel_x22,watch_accel_y22,watch_accel_z22,watch_gyros_x22,watch_gyros_y22,watch_gyros_z22,watch_accel_x23,watch_accel_y23,watch_accel_z23,watch_gyros_x23,watch_gyros_y23,watch_gyros_z23,watch_accel_x24,watch_accel_y24,watch_accel_z24,watch_gyros_x24,watch_gyros_y24,watch_gyros_z24,watch_accel_x25,watch_accel_y25,watch_accel_z25,watch_gyros_x25,watch_gyros_y25,watch_gyros_z25,watch_accel_x26,watch_accel_y26,watch_accel_z26,watch_gyros_x26,watch_gyros_y26,watch_gyros_z26,watch_accel_x27,watch_accel_y27,watch_accel_z27,watch_gyros_x27,watch_gyros_y27,watch_gyros_z27,watch_accel_x28,watch_accel_y28,watch_accel_z28,watch_gyros_x28,watch_gyros_y28,watch_gyros_z28,watch_accel_x29,watch_accel_y29,watch_accel_z29,watch_gyros_x29,watch_gyros_y29,watch_gyros_z29,watch_accel_x30,watch_accel_y30,watch_accel_z30,watch_gyros_x30,watch_gyros_y30,watch_gyros_z30,watch_accel_x31,watch_accel_y31,watch_accel_z31,watch_gyros_x31,watch_gyros_y31,watch_gyros_z31,watch_accel_x32,watch_accel_y32,watch_accel_z32,watch_gyros_x32,watch_gyros_y32,watch_gyros_z32,watch_accel_x33,watch_accel_y33,watch_accel_z33,watch_gyros_x33,watch_gyros_y33,watch_gyros_z33,watch_accel_x34,watch_accel_y34,watch_accel_z34,watch_gyros_x34,watch_gyros_y34,watch_gyros_z34,watch_accel_x35,watch_accel_y35,watch_accel_z35,watch_gyros_x35,watch_gyros_y35,watch_gyros_z35,watch_accel_x36,watch_accel_y36,watch_accel_z36,watch_gyros_x36,watch_gyros_y36,watch_gyros_z36,watch_accel_x37,watch_accel_y37,watch_accel_z37,watch_gyros_x37,watch_gyros_y37,watch_gyros_z37,watch_accel_x38,watch_accel_y38,watch_accel_z38,watch_gyros_x38,watch_gyros_y38,watch_gyros_z38,watch_accel_x39,watch_accel_y39,watch_accel_z39,watch_gyros_x39,watch_gyros_y39,watch_gyros_z39,watch_accel_x40,watch_accel_y40,watch_accel_z40,watch_gyros_x40,watch_gyros_y40,watch_gyros_z40,watch_accel_x41,watch_accel_y41,watch_accel_z41,watch_gyros_x41,watch_gyros_y41,watch_gyros_z41,watch_accel_x42,watch_accel_y42,watch_accel_z42,watch_gyros_x42,watch_gyros_y42,watch_gyros_z42,watch_accel_x43,watch_accel_y43,watch_accel_z43,watch_gyros_x43,watch_gyros_y43,watch_gyros_z43,watch_accel_x44,watch_accel_y44,watch_accel_z44,watch_gyros_x44,watch_gyros_y44,watch_gyros_z44,watch_accel_x45,watch_accel_y45,watch_accel_z45,watch_gyros_x45,watch_gyros_y45,watch_gyros_z45,watch_accel_x46,watch_accel_y46,watch_accel_z46,watch_gyros_x46,watch_gyros_y46,watch_gyros_z46,watch_accel_x47,watch_accel_y47,watch_accel_z47,watch_gyros_x47,watch_gyros_y47,watch_gyros_z47,watch_accel_x48,watch_accel_y48,watch_accel_z48,watch_gyros_x48,watch_gyros_y48,watch_gyros_z48,watch_accel_x49,watch_accel_y49,watch_accel_z49,watch_gyros_x49,watch_gyros_y49,watch_gyros_z49,watch_accel_x50,watch_accel_y50,watch_accel_z50,watch_gyros_x50,watch_gyros_y50,watch_gyros_z50,watch_accel_x51,watch_accel_y51,watch_accel_z51,watch_gyros_x51,watch_gyros_y51,watch_gyros_z51,watch_accel_x52,watch_accel_y52,watch_accel_z52,watch_gyros_x52,watch_gyros_y52,watch_gyros_z52
shake,10201,208,208_10201_260414155003444,7.175422668457031,-5.772420406341553,-4.750096321105957,-0.2834414839744568,0.29077184200286865,0.09407325088977814,6.916848659515381,-5.657498836517334,-3.6343982219696045,-0.5937610268592834,0.4813618063926697,0.14416420459747314,6.811503887176514,-4.264073371887207,-1.9608511924743652,-0.9834930300712585,0.5057964324951172,0.29077184200286865,6.607996463775635,-3.1651346683502197,-1.460463047027588,-1.833817481994629,0.16371189057826996,0.5546656250953674,6.842628479003906,-1.7262194156646729,-4.1180267333984375,-2.3909265995025635,-0.11728613078594208,0.6670648455619812,6.2632317543029785,-1.9297266006469727,-7.331045627593994,-2.992017984390259,-0.06475171446800232,0.750142514705658,5.262455463409424,-5.851428985595703,-9.986215591430664,-3.219259738922119,0.1160643994808197,0.608421802520752,7.400477409362793,-10.089165687561035,-8.777143478393555,-2.1111502647399902,-0.004886921960860491,0.4080579876899719,8.772355079650879,-8.542511940002441,-6.550535678863525,0.6426302194595337,0.12461651116609573,-0.13072516024112701,7.94635534286499,-6.150704383850098,-3.1914708614349365,1.8765780925750732,0.17104226350784302,-0.2919935882091522,7.2113356590271,-4.6734819412231445,-2.4013843536376953,2.161241292953491,-0.13805554807186127,-0.375071257352829,7.151480674743652,-5.008669853210449,-3.536235809326172,1.529606580734253,-0.4129449129104614,-0.4178318381309509,6.739677906036377,-6.57926607131958,-5.12119722366333,0.7586946487426758,-0.42760565876960754,-0.394618958234787,6.426037311553955,-6.1985883712768555,-6.337451934814453,1.0128145217895508,-0.32009339332580566,-0.5094616413116455,5.746084213256836,-4.491522312164307,-5.985504150390625,1.4220943450927734,-0.05253441259264946,-0.42271876335144043,4.726154327392578,-3.507505416870117,-5.286397457122803,1.3744467496871948,0.15515977144241333,-0.18814650177955627,4.932055473327637,-4.108449935913086,-4.235342979431152,0.7269296646118164,0.12461651116609573,0.19058994948863983,5.935225963592529,-5.329493045806885,-4.019864559173584,0.1258382350206375,-0.06719517707824707,0.32986724376678467,7.769184589385986,-6.555324077606201,-3.251325845718384,-0.5167919993400574,-0.1771509200334549,0.3029891550540924,8.085219383239746,-3.9264907836914062,-2.9305028915405273,-0.6988298296928406,-0.13439035415649414,0.3433062732219696,7.1921820640563965,-2.229001760482788,-4.345476150512695,-1.1117748022079468,-0.16004669666290283,0.5021312236785889,6.026205539703369,-3.6535518169403076,-7.778761386871338,-1.7495180368423462,-0.11850785464048386,0.513126790523529,5.858611583709717,-5.51624059677124,-8.346187591552734,-1.63467538356781,-0.03787364438176155,0.4105014503002167,6.703764915466309,-7.433996200561523,-7.60637903213501,-0.9761626720428467,-0.013439035043120384,0.1722639948129654,8.08043098449707,-6.703764915466309,-5.861005783081055,0.07819075137376785,-0.03420845419168472,-0.19058994948863983,7.869740962982178,-6.145915985107422,-4.738125324249268,0.6524040699005127,0.10262536257505417,-0.32009339332580566,8.195352554321289,-7.240066051483154,-4.292803764343262,0.5803219676017761,0.012217304669320583,-0.4544837474822998,7.12035608291626,-7.675810813903809,-4.817133903503418,0.998153805732727,-0.00366519158706069,-0.5693264007568359,6.064512729644775,-5.851428985595703,-4.458003520965576,1.82404363155365,-0.08918632566928864,-0.656069278717041,5.4659624099731445,-4.2544965744018555,-3.9049429893493652,2.283414363861084,-0.10873401165008545,-0.5656611919403076,5.161899089813232,-5.530605792999268,-3.404554843902588,1.8582520484924316,-0.13561208546161652,-0.44104471802711487,5.458779811859131,-6.22731876373291,-3.220201253890991,1.3646728992462158,-0.34574973583221436,-0.3543018400669098,6.0836663246154785,-5.817910194396973,-3.823540210723877,1.0396926403045654,-0.4434881806373596,-0.3640756905078888,6.6127848625183105,-5.056553840637207,-4.37420654296875,0.3188716471195221,-0.3897320330142975,-0.30543261766433716,6.88332986831665,-4.800374507904053,-5.130774021148682,0.045204028487205505,-0.36651915311813354,-0.26511552929878235,7.273584842681885,-4.692635536193848,-5.415684223175049,-0.03176499158143997,-0.3335324227809906,-0.22113321721553802,7.441178798675537,-4.553771495819092,-5.370194435119629,0.0024434609804302454,-0.19914206862449646,-0.19425514340400696,7.364564418792725,-4.448426723480225,-5.252878665924072,-0.013439035043120384,-0.09040805697441101,-0.14538592100143433,7.357381820678711,-4.608838081359863,-4.999093055725098,-0.051312681287527084,-0.05009094998240471,-0.13316862285137177,7.443572998046875,-5.085284233093262,-4.757278919219971,0.013439035043120384,-0.03787364438176155,-0.1466076523065567,7.352593421936035,-5.142745018005371,-4.455609321594238,0.0659734457731247,-0.04153883829712868,-0.13805554807186127,7.158663272857666,-5.015852451324463,-4.299986362457275,0.010995574295520782,-0.04153883829712868,-0.10262536257505417,6.921637058258057,-5.2049946784973145,-4.424484729766846,-0.04153883829712868,-0.045204028487205505,-0.08429940044879913,6.88332986831665,-5.341464042663574,-4.730942726135254,-0.13316862285137177,0.01710422709584236,-0.0757472887635231,6.718130111694336,-5.298368453979492,-4.927267074584961,-0.13561208546161652,0.019547687843441963,-0.05009094998240471,6.75883150100708,-5.341464042663574,-4.778826713562012,-0.06108652427792549,0.030543262138962746,-0.018325956538319588,6.825869083404541,-5.125985622406006,-4.651933670043945,-0.02932153269648552,0.042760565876960754,0.012217304669320583,6.845022678375244,-5.16429328918457,-4.462791919708252,-0.010995574295520782,0.01466076634824276,0.015882495790719986,7.079654216766357,-5.30076265335083,-4.400542736053467,-0.025656340643763542,-0.00733038317412138,0.0012217304902151227,7.1706342697143555,-5.34625244140625,-4.565742492675781,-0.030543262138962746,0.010995574295520782,-0.010995574295520782,7.129932880401611,-5.317522048950195,-4.46518611907959,-0.025656340643763542,-0.0024434609804302454,-0.010995574295520782,7.003039836883545,-5.214571475982666,-4.5154643058776855,0.004886921960860491,-0.004886921960860491,-0.01710422709584236,7.0557122230529785,-5.410895824432373,-4.654327869415283,0.06475171446800232,-0.00733038317412138,-0.03176499158143997
