label,sub_label,user,file_id,watch_accel_x0,watch_accel_y0,watch_accel_z0,watch_gyros_x0,watch_gyros_y0,watch_gyros_z0,watch_accel_x1,watch_accel_y1,watch_accel_z1,watch_gyros_x1,watch_gyros_y1,watch_gyros_z1,watch_accel_x2,watch_accel_y2,watch_accel_z2,watch_gyros_x2,watch_gyros_y2,watch_gyros_z2,watch_accel_x3,watch_accel_y3,watch_accel_z3,watch_gyros_x3,watch_gyros_y3,watch_gyros_z3,watch_accel_x4,watch_accel_y4,watch_accel_z4,watch_gyros_x4,watch_gyros_y4,watch_gyros_z4,watch_accel_x5,watch_accel_y5,watch_accel_z5,watch_gyros_x5,watch_gyros_y5,watch_gyros_z5,watch_accel_x6,watch_accel_y6,watch_accel_z6,watch_gyros_x6,watch_gyros_y6,watch_gyros_z6,watch_accel_x7,watch_accel_y7,watch_accel_z7,watch_gyros_x7,watch_gyros_y7,watch_gyros_z7,watch_accel_x8,watch_accel_y8,watch_accel_z8,watch_gyros_x8,watch_gyros_y8,watch_gyros_z8,watch_accel_x9,watch_accel_y9,watch_accel_z9,watch_gyros_x9,watch_gyros_y9,watch_gyros_z9,watch_accel_x10,watch_accel_y10,watch_accel_z10,watch_gyros_x10,watch_gyros_y10,watch_gyros_z10,watch_accel_x11,watch_accel_y11,watch_accel_z11,watch_gyros_x11,watch_gyros_y11,watch_gyros_z11,watch_accel_x12,watch_accel_y12,watch_accel_z12,watch_gyros_x12,watch_gyros_y12,watch_gyros_z12,watch_accel_x13,watch_accel_y13,watch_accel_z13,watch_gyros_x13,watch_gyros_y13,watch_gyros_z13,watch_accel_x14,watch_accel_y14,watch_accel_z14,watch_gyros_x14,watch_gyros_y14,watch_gyros_z14,watch_accel_x15,watch_accel_y15,watch_accel_z15,watch_gyros_x15,watch_gyros_y15,watch_gyros_z15,watch_accel_x16,watch_accel_y16,watch_accel_z16,watch_gyros_x16,watch_gyros_y16,watch_gyros_z16,watch_accel_x17,watch_accel_y17,watch_accel_z17,watch_gyros_x17,watch_gyros_y17,watch_gyros_z17,watch_accel_x18,watch_accel_y18,watch_accel_z18,watch_gyros_x18,watch_gyros_y18,watch_gyros_z18,watch_accel_x19,watch_accel_y19,watch_accel_z19,watch_gyros_x19,watch_gyros_y19,watch_gyros_z19,watch_accel_x20,watch_accel_y20,watch_accel_z20,watch_gyros_x20,watch_gyros_y20,watch_gyros_z20,watch_accel_x21,watch_accel_y21,watch_accel_z21,watch_gyros_x21,watch_gyros_y21,watch_gyros_z21,watch_accel_x22,watch_accel_y22,watch_accel_z22,watch_gyros_x22,watch_gyros_y22,watch_gyros_z22,watch_accel_x23,watch_accel_y23,watch_accel_z23,watch_gyros_x23,watch_gyros_y23,watch_gyros_z23,watch_accel_x24,watch_accel_y24,watch_accel_z24,watch_gyros_x24,watch_gyros_y24,watch_gyros_z24,watch_accel_x25,watch_accel_y25,watch_accel_z25,watch_gyros_x25,watch_gyros_y25,watch_gyros_z25,watch_accel_x26,watch_accel_y26,watch_accel_z26,watch_gyros_x26,watch_gyros_y26,watch_gyros_z26,watch_accel_x27,watch_accel_y27,watch_accel_z27,watch_gyros_x27,watch_gyros_y27,watch_gyros_z27,watch_accel_x28,watch_accel_y28,watch_accel_z28,watch_gyros_x28,watch_gyros_y28,watch_gyros_z28,watch_accel_x29,watch_accel_y29,watch_accel_z29,watch_gyros_x29,watch_gyros_y29,watch_gyros_z29,watch_accel_x30,watch_accel_y30,watch_accel_z30,watch_gyros_x30,watch_gyros_y30,watch_gyros_z30,watch_accel_x31,watch_accel_y31,watch_accel_z31,watch_gyros_x31,watch_gyros_y31,watch_gyros_z31,watch_accel_x32,watch_accel_y32,watch_accel_z32,watch_gyros_x32,watch_gyros_y32,watch_gyros_z32,watch_accel_x33,watch_accel_y33,watch_accel_z33,watch_gyros_x33,watch_gyros_y33,watch_gyros_z33,watch_accel_x34,watch_accel_y34,watch_accel_z34,watch_gyros_x34,watch_gyros_y34,watch_gyros_z34,watch_accel_x35,watch_accel_y35,watch_accel_z35,watch_gyros_x35,watch_gyros_y35,watch_gyros_z35,watch_accel_x36,watch_accel_y36,watch_accel_z36,watch_gyros_x36,watch_gyros_y36,watch_gyros_z36,watch_accel_x37,watch_accel_y37,watch_accel_z37,watch_gyros_x37,watch_gyros_y37,watch_gyros_z37,watch_accel_x38,watch_accel_y38,watch_accel_z38,watch_gyros_x38,watch_gyros_y38,watch_gyros_z38,watch_accel_x39,watch_accel_y39,watch_accel_z39,watch_gyros_x39,watch_gyros_y39,watch_gyros_z39,watch_accel_x40,watch_accel_y40,watch_accel_z40,watch_gyros_x40,watch_gyros_y40,watch_gyros_z40,watch_accel_x41,watch_accel_y41,watch_accel_z41,watch_gyros_x41,watch_gyros_y41,watch_gyros_z41,watch_accel_x42,watch_accel_y42,watch_accel_z42,watch_gyros_x42,watch_gyros_y42,watch_gyros_z42,watch_accel_x43,watch_accel_y43,watch_accel_z43,watch_gyros_x43,watch_gyros_y43,watch_gyros_z43,watch_accel_x44,watch_accel_y44,watch_accel_z44,watch_gyros_x44,watch_gyros_y44,watch_gyros_z44,watch_accel_x45,watch_accel_y45,watch_accel_z45,watch_gyros_x45,watch_gyros_y45,watch_gyros_z45,watch_accel_x46,watch_accel_y46,watch_accel_z46,watch_gyros_x46,watch_gyros_y46,watch_gyros_z46,watch_accel_x47,watch_accel_y47,watch_accel_z47,watch_gyros_x47,watch_gyros_y47,watch_gyros_z47
shake,10201,208,208_10201_260414155011023,7.575253963470459,-3.066972494125366,-6.169857978820801,-1.4379768371582031,1.0506882667541504,0.9578366875648499,6.452373504638672,-1.7070658206939697,-4.252102375030518,-1.814269781112671,1.2962560653686523,1.5259413719177246,5.430049419403076,-1.5705963373184204,-2.4133553504943848,-2.353052854537964,1.282817006111145,2.057394027709961,5.679046630859375,-2.2194249629974365,-4.280832767486572,-3.1801645755767822,0.6108652353286743,2.4251351356506348,5.580883979797363,-3.536235809326172,-9.078812599182129,-3.621209144592285,0.49235737323760986,2.311514139175415,4.10366153717041,-8.544905662536621,-11.209651947021484,-3.623652696609497,0.7379252314567566,1.9620991945266724,6.095637321472168,-12.667720794677734,-8.24084186553955,-1.7043139934539795,0.46792277693748474,0.9871582388877869,6.344634532928467,-10.503362655639648,-4.991910457611084,0.4447098970413208,0.46792277693748474,0.051312681287527084,5.408501625061035,-7.587224960327148,-2.1715409755706787,2.2736403942108154,0.07452555745840073,-0.8723155856132507,6.102819919586182,-6.3973069190979,-2.628833532333374,2.6010642051696777,-0.4764748811721802,-1.2021827697753906,7.043741226196289,-5.415684223175049,-4.07014274597168,2.6426031589508057,-0.8833111524581909,-1.4098769426345825,7.69735860824585,-4.797980308532715,-5.643133640289307,2.6645941734313965,-1.0421360731124878,-1.4294246435165405,8.10437297821045,-4.230554580688477,-7.079654216766357,2.6169466972351074,-0.9126327037811279,-1.3170254230499268,7.795520782470703,-2.9472622871398926,-6.179434776306152,2.305405378341675,-0.3787364661693573,-0.9749409556388855,6.787561893463135,-2.808398485183716,-5.123591423034668,0.9871582388877869,0.27000242471694946,-0.28099802136421204,5.729324817657471,-4.7189717292785645,-4.242525577545166,-0.08429940044879913,0.5326744914054871,0.2064724564552307,6.057330131530762,-4.527435302734375,-3.7924153804779053,-0.8674286603927612,0.5204572081565857,0.769690215587616,6.0190229415893555,-2.229001760482788,-4.448426723480225,-1.1068878173828125,0.4508185386657715,1.0873401165008545,5.643133640289307,-1.1300631761550903,-5.834669589996338,-1.5173892974853516,0.45204028487205505,1.3524556159973145,4.886565685272217,-2.5905263423919678,-7.508216381072998,-2.4019222259521484,0.4495968222618103,1.5039502382278442,4.6040496826171875,-5.987898349761963,-7.876923561096191,-2.6108381748199463,0.4129449129104614,1.4306464195251465,6.0405707359313965,-9.260771751403809,-7.570465564727783,-1.5723671913146973,0.16982053220272064,0.836885392665863,6.708553314208984,-9.009381294250488,-5.702988624572754,-0.4434881806373596,0.19792033731937408,0.2785545587539673,6.160281181335449,-6.959944248199463,-4.170699596405029,0.7024950385093689,0.10018189996480942,-0.40683624148368835,6.236895561218262,-5.95677375793457,-4.060565948486328,0.9871582388877869,-0.1918116807937622,-0.7464773058891296,7.1706342697143555,-6.088454723358154,-4.774038314819336,1.0225883722305298,-0.4105014503002167,-0.9040805697441101,7.910442352294922,-6.536170482635498,-5.216965675354004,0.8063421249389648,-0.5314527750015259,-1.0018190145492554,7.91283655166626,-7.429207801818848,-5.889736175537109,0.9676105380058289,-0.4642575979232788,-1.0934487581253052,7.067683219909668,-5.710171222686768,-5.238513469696045,1.4196507930755615,-0.31154128909111023,-1.0751228332519531,6.473921298980713,-4.079719543457031,-4.58968448638916,1.6236798763275146,-0.23090706765651703,-0.8454375267028809,5.925649166107178,-4.795586109161377,-4.077325344085693,1.1679743528366089,-0.1966986060142517,-0.5803219676017761,5.825092792510986,-5.856217384338379,-4.414907932281494,0.6878342628479004,-0.32498031854629517,-0.3836233615875244,6.0405707359313965,-5.882553577423096,-4.9152960777282715,0.4960225820541382,-0.3579670190811157,-0.3384193480014801,6.2847795486450195,-5.540182590484619,-5.521028995513916,0.2382374405860901,-0.3127630054950714,-0.30543261766433716,6.246472358703613,-5.135562419891357,-5.5760955810546875,0.02687807008624077,-0.18325957655906677,-0.2382374405860901,6.358999729156494,-4.963180065155029,-5.6670756340026855,0.018325956538319588,-0.14538592100143433,-0.20525072515010834,6.531382083892822,-4.963180065155029,-5.331887245178223,0.0354301854968071,-0.045204028487205505,-0.17837265133857727,6.708553314208984,-4.927267074584961,-5.0469770431518555,0.09162978827953339,-0.019547687843441963,-0.18325957655906677,6.9024834632873535,-5.0900726318359375,-4.776432514190674,0.20525072515010834,-0.025656340643763542,-0.16371189057826996,7.060500621795654,-5.006275653839111,-4.513070106506348,0.1869247704744339,0.0024434609804302454,-0.2125810980796814,6.8378400802612305,-4.929661273956299,-4.462791919708252,0.14782938361167908,0.013439035043120384,-0.21991148591041565,6.9455790519714355,-4.599261283874512,-4.537012100219727,0.1062905490398407,-0.059864792972803116,-0.21868975460529327,7.129932880401611,-4.855441093444824,-4.819528102874756,-0.013439035043120384,-0.05497787147760391,-0.20891591906547546,7.015010833740234,-4.793191909790039,-4.922478675842285,0.013439035043120384,-0.05253441259264946,-0.25534167885780334,6.962338447570801,-4.639962673187256,-4.853046894073486,0.03176499158143997,-0.05009094998240471,-0.2370157092809677,6.897695064544678,-4.73573112487793,-4.81473970413208,0.03298672288656235,-0.04764748737215996,-0.23335053026676178,6.912060260772705,-4.9583916664123535,-4.683058738708496,0.009773843921720982,-0.06108652427792549,-0.23457226157188416,7.01979923248291,-5.080495834350586,-4.721365928649902,-0.039095375686883926,-0.06841690838336945,-0.2528982162475586
