label,sub_label,user,file_id,watch_accel_x0,watch_accel_y0,watch_accel_z0,watch_gyros_x0,watch_gyros_y0,watch_gyros_z0,watch_accel_x1,watch_accel_y1,watch_accel_z1,watch_gyros_x1,watch_gyros_y1,watch_gyros_z1,watch_accel_x2,watch_accel_y2,watch_accel_z2,watch_gyros_x2,watch_gyros_y2,watch_gyros_z2,watch_accel_x3,watch_accel_y3,watch_accel_z3,watch_gyros_x3,watch_gyros_y3,watch_gyros_z3,watch_accel_x4,watch_accel_y4,watch_accel_z4,watch_gyros_x4,watch_gyros_y4,watch_gyros_z4,watch_accel_x5,watch_accel_y5,watch_accel_z5,watch_gyros_x5,watch_gyros_y5,watch_gyros_z5,watch_accel_x6,watch_accel_y6,watch_accel_z6,watch_gyros_x6,watch_gyros_y6,watch_gyros_z6,watch_accel_x7,watch_accel_y7,watch_accel_z7,watch_gyros_x7,watch_gyros_y7,watch_gyros_z7,watch_accel_x8,watch_accel_y8,watch_accel_z8,watch_gyros_x8,watch_gyros_y8,watch_gyros_z8,watch_accel_x9,watch_accel_y9,watch_accel_z9,watch_gyros_x9,watch_gyros_y9,watch_gyros_z9,watch_accel_x10,watch_accel_y10,watch_accel_z10,watch_gyros_x10,watch_gyros_y10,watch_gyros_z10,watch_accel_x11,watch_accel_y11,watch_accel_z11,watch_gyros_x11,watch_gyros_y11,watch_gyros_z11,watch_accel_x12,watch_accel_y12,watch_accel_z12,watch_gyros_x12,watch_gyros_y12,watch_gyros_z12,watch_accel_x13,watch_accel_y13,watch_accel_z13,watch_gyros_x13,watch_gyros_y13,watch_gyros_z13,watch_accel_x14,watch_accel_y14,watch_accel_z14,watch_gyros_x14,watch_gyros_y14,watch_gyros_z14,watch_accel_x15,watch_accel_y15,watch_accel_z15,watch_gyros_x15,watch_gyros_y15,watch_gyros_z15,watch_accel_x16,watch_accel_y16,watch_accel_z16,watch_gyros_x16,watch_gyros_y16,watch_gyros_z16,watch_accel_x17,watch_accel_y17,watch_accel_z17,watch_gyros_x17,watch_gyros_y17,watch_gyros_z17,watch_accel_x18,watch_accel_y18,watch_accel_z18,watch_gyros_x18,watch_gyros_y18,watch_gyros_z18,watch_accel_x19,watch_accel_y19,watch_accel_z19,watch_gyros_x19,watch_gyros_y19,watch_gyros_z19,watch_accel_x20,watch_accel_y20,watch_accel_z20,watch_gyros_x20,watch_gyros_y20,watch_gyros_z20,watch_accel_x21,watch_accel_y21,watch_accel_z21,watch_gyros_x21,watch_gyros_y21,watch_gyros_z21,watch_accel_x22,watch_accel_y22,watch_accel_z22,watch_gyros_x22,watch_gyros_y22,watch_gyros_z22,watch_accel_x23,watch_accel_y23,watch_accel_z23,watch_gyros_x23,watch_gyros_y23,watch_gyros_z23,watch_accel_x24,watch_accel_y24,watch_accel_z24,watch_gyros_x24,watch_gyros_y24,watch_gyros_z24,watch_accel_x25,watch_accel_y25,watch_accel_z25,watch_gyros_x25,watch_gyros_y25,watch_gyros_z25,watch_accel_x26,watch_accel_y26,watch_accel_z26,watch_gyros_x26,watch_gyros_y26,watch_gyros_z26,watch_accel_x27,watch_accel_y27,watch_accel_z27,watch_gyros_x27,watch_gyros_y27,watch_gyros_z27,watch_accel_x28,watch_accel_y28,watch_accel_z28,watch_gyros_x28,watch_gyros_y28,watch_gyros_z28,watch_accel_x29,watch_accel_y29,watch_accel_z29,watch_gyros_x29,watch_gyros_y29,watch_gyros_z29,watch_accel_x30,watch_accel_y30,watch_accel_z30,watch_gyros_x30,watch_gyros_y30,watch_gyros_z30,watch_accel_x31,watch_accel_y31,watch_accel_z31,watch_gyros_x31,watch_gyros_y31,watch_gyros_z31,watch_accel_x32,watch_accel_y32,watch_accel_z32,watch_gyros_x32,watch_gyros_y32,watch_gyros_z32,watch_accel_x33,watch_accel_y33,watch_accel_z33,watch_gyros_x33,watch_gyros_y33,watch_gyros_z33,watch_accel_x34,watch_accel_y34,watch_accel_z34,watch_gyros_x34,watch_gyros_y34,watch_gyros_z34,watch_accel_x35,watch_accel_y35,watch_accel_z35,watch_gyros_x35,watch_gyros_y35,watch_gyros_z35,watch_accel_x36,watch_accel_y36,watch_accel_z36,watch_gyros_x36,watch_gyros_y36,watch_gyros_z36,watch_accel_x37,watch_accel_y37,watch_accel_z37,watch_gyros_x37,watch_gyros_y37,watch_gyros_z37,watch_accel_x38,watch_accel_y38,watch_accel_z38,watch_gyros_x38,watch_gyros_y38,watch_gyros_z38,watch_accel_x39,watch_accel_y39,watch_accel_z39,watch_gyros_x39,watch_gyros_y39,watch_gyros_z39,watch_accel_x40,watch_accel_y40,watch_accel_z40,watch_gyros_x40,watch_gyros_y40,watch_gyros_z40,watch_accel_x41,watch_accel_y41,watch_accel_z41,watch_gyros_x41,watch_gyros_y41,watch_gyros_z41,watch_accel_x42,watch_accel_y42,watch_accel_z42,watch_gyros_x42,watch_gyros_y42,watch_gyros_z42,watch_accel_x43,watch_accel_y43,watch_accel_z43,watch_gyros_x43,watch_gyros_y43,watch_gyros_z43,watch_accel_x44,watch_accel_y44,watch_accel_z44,watch_gyros_x44,watch_gyros_y44,watch_gyros_z44,watch_accel_x45,watch_accel_y45,watch_accel_z45,watch_gyros_x45,watch_gyros_y45,watch_gyros_z45,watch_accel_x46,watch_accel_y46,watch_accel_z46,watch_gyros_x46,watch_gyros_y46,watch_gyros_z46,watch_accel_x47,watch_accel_y47,watch_accel_z47,watch_gyros_x47,watch_gyros_y47,watch_gyros_z47,watch_accel_x48,watch_accel_y48,watch_accel_z48,watch_gyros_x48,watch_gyros_y48,watch_gyros_z48
shake,10201,208,208_10201_260414154941508,5.906495571136475,-2.274491548538208,-5.961562156677246,0.2590068578720093,0.93095862865448,0.6585127115249634,5.983109951019287,-3.064578056335449,-5.193023681640625,-0.7012733221054077,0.8820894360542297,0.960280179977417,5.851428985595703,-3.9169139862060547,-4.173093795776367,-1.187522053718567,0.8026769161224365,1.0629055500030518,5.834669589996338,-3.622427225112915,-4.1874589920043945,-1.3866641521453857,0.6475171446800232,1.1301007270812988,5.635950565338135,-3.5865142345428467,-5.683835029602051,-1.8839083909988403,0.5583308339118958,1.2583824396133423,4.575319290161133,-5.791574001312256,-7.515398979187012,-2.161241292953491,0.6047565937042236,1.3145819902420044,4.242525577545166,-7.201758861541748,-8.01339340209961,-1.6615535020828247,0.475253164768219,0.8991936445236206,4.307168960571289,-8.377311706542969,-6.694188117980957,-0.9040805697441101,0.3885102868080139,0.6157521605491638,5.849034786224365,-8.877699851989746,-5.099649429321289,-0.3738495409488678,0.1417207419872284,0.18936823308467865,6.787561893463135,-8.549694061279297,-4.285621166229248,0.27488934993743896,-0.10995574295520782,-0.34574973583221436,6.464344501495361,-7.795520782470703,-4.467580318450928,0.46670106053352356,-0.18325957655906677,-0.6646214127540588,5.916072368621826,-7.16584587097168,-4.577713489532471,0.6133087277412415,-0.32009339332580566,-1.0115928649902344,5.458779811859131,-6.404489517211914,-5.56173038482666,0.5583308339118958,-0.48747047781944275,-1.166752576828003,5.066130638122559,-5.188235282897949,-6.119579315185547,0.7843509912490845,-0.6841690540313721,-1.1936306953430176,4.994304656982422,-3.8714241981506348,-6.9024834632873535,0.9395107626914978,-0.7684684991836548,-1.1826350688934326,5.403713226318359,-2.9161376953125,-7.350199222564697,1.0800096988677979,-0.856433093547821,-1.1410962343215942,5.659893035888672,-2.1284453868865967,-7.824251174926758,1.4013248682022095,-0.856433093547821,-0.9431759119033813,5.935225963592529,-1.6543933153152466,-8.032546997070312,1.156978726387024,-0.740368664264679,-0.7562511563301086,5.8442463874816895,-2.0901381969451904,-8.425195693969727,0.6805039048194885,-0.4960225820541382,-0.485027015209198,6.007051944732666,-2.784456491470337,-9.210494041442871,0.44715335965156555,-0.20891591906547546,-0.10262536257505417,6.31829833984375,-1.7070658206939697,-9.277531623840332,0.504574716091156,0.06475171446800232,0.1918116807937622,6.45476770401001,-0.5937620401382446,-8.889671325683594,0.1820378452539444,0.48380526900291443,0.7000515460968018,6.347028732299805,-1.0989385843276978,-8.111555099487305,-0.4202753007411957,0.6695083379745483,1.0238101482391357,6.574477672576904,-2.920926094055176,-6.775590896606445,-0.9480628371238708,0.7867944240570068,1.2510520219802856,6.646304130554199,-3.4955344200134277,-5.8657941818237305,-1.225395679473877,0.8503243923187256,1.510058879852295,4.821922302246094,-3.203441858291626,-7.311892032623291,-0.9871582388877869,0.9651671051979065,1.605353832244873,2.873042106628418,-4.436455726623535,-7.3023152351379395,-0.9358455538749695,1.1911872625350952,1.4428637027740479,2.964021682739258,-6.370970726013184,-5.813121795654297,-1.3267992734909058,0.8124507665634155,1.1655309200286865,5.2480902671813965,-9.806650161743164,-4.704606533050537,-1.3732250928878784,0.3017674386501312,0.8674286603927612,6.754043102264404,-10.441113471984863,-3.9911341667175293,-0.7782423496246338,-0.010995574295520782,0.2125810980796814,6.435614109039307,-9.47146224975586,-4.371812343597412,-0.045204028487205505,0.025656340643763542,-0.1771509200334549,5.729324817657471,-7.924807548522949,-4.989516258239746,0.23335053026676178,-0.04398229718208313,-0.5522221922874451,5.102043628692627,-7.393294811248779,-5.394136428833008,0.2272418737411499,-0.17837265133857727,-0.6414085030555725,4.991910457611084,-7.01979923248291,-6.404489517211914,0.3396410644054413,-0.3396410644054413,-0.7086036801338196,5.214571475982666,-6.426037311553955,-6.88332986831665,0.8210029006004333,-0.5461135506629944,-0.9321803450584412,5.161899089813232,-5.57370138168335,-6.694188117980957,1.0384708642959595,-0.5363397002220154,-1.0054842233657837,5.130774021148682,-4.697423934936523,-6.878541469573975,1.205847978591919,-0.5473352670669556,-1.0519099235534668,5.430049419403076,-4.082113742828369,-6.538564682006836,1.4624114036560059,-0.6059783101081848,-0.978606104850769,5.714959621429443,-3.6750996112823486,-6.457161903381348,1.3732250928878784,-0.5962044596672058,-0.9431759119033813,5.724536418914795,-3.7158010005950928,-6.323086738586426,0.8637634515762329,-0.5522221922874451,-0.8258898258209229,5.717353820800781,-3.6391866207122803,-5.9974751472473145,0.5949827432632446,-0.5143485069274902,-0.7318165898323059,5.729324817657471,-4.357447147369385,-6.2847795486450195,0.5803219676017761,-0.5510004758834839,-0.6487388610839844,6.074089527130127,-4.441244125366211,-6.433219909667969,0.5974262356758118,-0.5607742667198181,-0.5522221922874451,5.95677375793457,-4.458003520965576,-6.521805286407471,0.5351179838180542,-0.4740314185619354,-0.5180137157440186,5.872976779937744,-4.484339714050293,-6.655880928039551,0.4239404797554016,-0.38728857040405273,-0.4434881806373596,5.96874475479126,-4.1611223220825195,-6.897695064544678,0.45204028487205505,-0.3579670190811157,-0.36651915311813354,6.026205539703369,-4.072536945343018,-7.0317702293396,0.3885102868080139,-0.2321287989616394,-0.26633724570274353,5.944802761077881,-4.134786128997803,-6.950367450714111,0.27122417092323303,-0.15515977144241333,-0.2015855312347412,5.805939197540283,-4.369418144226074,-6.708553314208984,0.20891591906547546,-0.12095131725072861,-0.15271630883216858
