label,sub_label,user,file_id,watch_accel_x0,watch_accel_y0,watch_accel_z0,watch_gyros_x0,watch_gyros_y0,watch_gyros_z0,watch_accel_x1,watch_accel_y1,watch_accel_z1,watch_gyros_x1,watch_gyros_y1,watch_gyros_z1,watch_accel_x2,watch_accel_y2,watch_accel_z2,watch_gyros_x2,watch_gyros_y2,watch_gyros_z2,watch_accel_x3,watch_accel_y3,watch_accel_z3,watch_gyros_x3,watch_gyros_y3,watch_gyros_z3,watch_accel_x4,watch_accel_y4,watch_accel_z4,watch_gyros_x4,watch_gyros_y4,watch_gyros_z4,watch_accel_x5,watch_accel_y5,watch_accel_z5,watch_gyros_x5,watch_gyros_y5,watch_gyros_z5,watch_accel_x6,watch_accel_y6,watch_accel_z6,watch_gyros_x6,watch_gyros_y6,watch_gyros_z6,watch_accel_x7,watch_accel_y7,watch_accel_z7,watch_gyros_x7,watch_gyros_y7,watch_gyros_z7,watch_accel_x8,watch_accel_y8,watch_accel_z8,watch_gyros_x8,watch_gyros_y8,watch_gyros_z8,watch_accel_x9,watch_accel_y9,watch_accel_z9,watch_gyros_x9,watch_gyros_y9,watch_gyros_z9,watch_accel_x10,watch_accel_y10,watch_accel_z10,watch_gyros_x10,watch_gyros_y10,watch_gyros_z10,watch_accel_x11,watch_accel_y11,watch_accel_z11,watch_gyros_x11,watch_gyros_y11,watch_gyros_z11,watch_accel_x12,watch_accel_y12,watch_accel_z12,watch_gyros_x12,watch_gyros_y12,watch_gyros_z12,watch_accel_x13,watch_accel_y13,watch_accel_z13,watch_gyros_x13,watch_gyros_y13,watch_gyros_z13,watch_accel_x14,watch_accel_y14,watch_accel_z14,watch_gyros_x14,watch_gyros_y14,watch_gyros_z14,watch_accel_x15,watch_accel_y15,watch_accel_z15,watch_gyros_x15,watch_gyros_y15,watch_gyros_z15,watch_accel_x16,watch_accel_y16,watch_accel_z16,watch_gyros_x16,watch_gyros_y16,watch_gyros_z16,watch_accel_x17,watch_accel_y17,watch_accel_z17,watch_gyros_x17,watch_gyros_y17,watch_gyros_z17,watch_accel_x18,watch_accel_y18,watch_accel_z18,watch_gyros_x18,watch_gyros_y18,watch_gyros_z18,watch_accel_x19,watch_accel_y19,watch_accel_z19,watch_gyros_x19,watch_gyros_y19,watch_gyros_z19,watch_accel_x20,watch_accel_y20,watch_accel_z20,watch_gyros_x20,watch_gyros_y20,watch_gyros_z20,watch_accel_x21,watch_accel_y21,watch_accel_z21,watch_gyros_x21,watch_gyros_y21,watch_gyros_z21,watch_accel_x22,watch_accel_y22,watch_accel_z22,watch_gyros_x22,watch_gyros_y22,watch_gyros_z22,watch_accel_x23,watch_accel_y23,watch_accel_z23,watch_gyros_x23,watch_gyros_y23,watch_gyros_z23,watch_accel_x24,watch_accel_y24,watch_accel_z24,watch_gyros_x24,watch_gyros_y24,watch_gyros_z24,watch_accel_x25,watch_accel_y25,watch_accel_z25,watch_gyros_x25,watch_gyros_y25,watch_gyros_z25,watch_accel_x26,watch_accel_y26,watch_accel_z26,watch_gyros_x26,watch_gyros_y26,watch_gyros_z26,watch_accel_x27,watch_accel_y27,watch_accel_z27,watch_gyros_x27,watch_gyros_y27,watch_gyros_z27,watch_accel_x28,watch_accel_y28,watch_accel_z28,watch_gyros_x28,watch_gyros_y28,watch_gyros_z28,watch_accel_x29,watch_accel_y29,watch_accel_z29,watch_gyros_x29,watch_gyros_y29,watch_gyros_z29,watch_accel_x30,watch_accel_y30,watch_accel_z30,watch_gyros_x30,watch_gyros_y30,watch_gyros_z30,watch_accel_x31,watch_accel_y31,watch_accel_z31,watch_gyros_x31,watch_gyros_y31,watch_gyros_z31,watch_accel_x32,watch_accel_y32,watch_accel_z32,watch_gyros_x32,watch_gyros_y32,watch_gyros_z32,watch_accel_x33,watch_accel_y33,watch_accel_z33,watch_gyros_x33,watch_gyros_y33,watch_gyros_z33,watch_accel_x34,watch_accel_y34,watch_accel_z34,watch_gyros_x34,watch_gyros_y34,watch_gyros_z34,watch_accel_x35,watch_accel_y35,watch_accel_z35,watch_gyros_x35,watch_gyros_y35,watch_gyros_z35,watch_accel_x36,watch_accel_y36,watch_accel_z36,watch_gyros_x36,watch_gyros_y36,watch_gyros_z36,watch_accel_x37,watch_accel_y37,watch_accel_z37,watch_gyros_x37,watch_gyros_y37,watch_gyros_z37,watch_accel_x38,watch_accel_y38,watch_accel_z38,watch_gyros_x38,watch_gyros_y38,watch_gyros_z38,watch_accel_x39,watch_accel_y39,watch_accel_z39,watch_gyros_x39,watch_gyros_y39,watch_gyros_z39,watch_accel_x40,watch_accel_y40,watch_accel_z40,watch_gyros_x40,watch_gyros_y40,watch_gyros_z40,watch_accel_x41,watch_accel_y41,watch_accel_z41,watch_gyros_x41,watch_gyros_y41,watch_gyros_z41,watch_accel_x42,watch_accel_y42,watch_accel_z42,watch_gyros_x42,watch_gyros_y42,watch_gyros_z42,watch_accel_x43,watch_accel_y43,watch_accel_z43,watch_gyros_x43,watch_gyros_y43,watch_gyros_z43,watch_accel_x44,watch_accel_y44,watch_accel_z44,watch_gyros_x44,watch_gyros_y44,watch_gyros_z44,watch_accel_x45,watch_accel_y45,watch_accel_z45,watch_gyros_x45,watch_gyros_y45,watch_gyros_z45,watch_accel_x46,watch_accel_y46,watch_accel_z46,watch_gyros_x46,watch_gyros_y46,watch_gyros_z46,watch_accel_x47,watch_accel_y47,watch_accel_z47,watch_gyros_x47,watch_gyros_y47,watch_gyros_z47,watch_accel_x48,watch_accel_y48,watch_accel_z48,watch_gyros_x48,watch_gyros_y48,watch_gyros_z48,watch_accel_x49,watch_accel_y49,watch_accel_z49,watch_gyros_x49,watch_gyros_y49,watch_gyros_z49,watch_accel_x50,watch_accel_y50,watch_accel_z50,watch_gyros_x50,watch_gyros_y50,watch_gyros_z50,watch_accel_x51,watch_accel_y51,watch_accel_z51,watch_gyros_x51,watch_gyros_y51,watch_gyros_z51
shake,10201,208,208_10201_260414155054301,5.331887245178223,-5.614402770996094,-7.175422668457031,0.607200026512146,0.2981022298336029,0.19058994948863983,4.8051629066467285,-7.666234016418457,-6.715735912322998,0.7770205736160278,0.49846604466438293,0.2822197377681732,4.666299343109131,-8.621520042419434,-6.045359134674072,0.8148942589759827,0.6927211880683899,0.3078760802745819,4.8937482833862305,-4.675876140594482,-3.332728862762451,1.3829989433288574,0.836885392665863,0.5974262356758118,5.157110691070557,-1.6184803247451782,-1.1492167711257935,0.4789183437824249,0.8307767510414124,0.9077457785606384,5.396530628204346,-2.3702597618103027,-1.7573440074920654,-1.833817481994629,0.6059783101081848,1.49906325340271,4.141968727111816,-3.885789394378662,-6.531382083892822,-2.730567693710327,0.5338962078094482,1.7592918872833252,1.2425906658172607,-7.738059997558594,-8.422801971435547,-2.676811456680298,0.7464773058891296,1.5320500135421753,0.9840168952941895,-10.127472877502441,-7.7643961906433105,-2.0390682220458984,0.3995058834552765,0.9138544201850891,3.9193081855773926,-11.434707641601562,-6.512228488922119,-1.4025466442108154,-0.21991148591041565,0.5094616413116455,6.517016887664795,-11.073183059692383,-4.185064792633057,-0.3579670190811157,-0.5852088928222656,-0.3029891550540924,6.864176273345947,-9.315838813781738,-4.32871675491333,0.2272418737411499,-0.6133087277412415,-0.7855727076530457,6.576871871948242,-7.91283655166626,-5.145139217376709,0.4508185386657715,-0.6194173693656921,-0.9627236127853394,6.179434776306152,-7.175422668457031,-5.954379558563232,0.4996877610683441,-0.42149701714515686,-0.9553932547569275,5.600037574768066,-6.291962146759033,-7.096413612365723,0.5192354321479797,-0.2541199326515198,-0.8136724829673767,5.16429328918457,-5.456385612487793,-7.582436561584473,0.608421802520752,-0.1258382350206375,-0.6597344875335693,4.3861775398254395,-5.95677375793457,-7.50582218170166,0.8307767510414124,0.17104226350784302,-0.5241223573684692,3.047818660736084,-7.010222434997559,-6.430825710296631,1.1410962343215942,0.3701843321323395,-0.3286454975605011,2.669534921646118,-7.654263019561768,-4.9152960777282715,0.8674286603927612,0.3481931984424591,-0.07330382615327835,3.3303346633911133,-7.393294811248779,-4.259284973144531,0.4495968222618103,0.21135938167572021,0.006108652334660292,4.288015365600586,-3.971980571746826,-4.0964789390563965,0.3029891550540924,0.11239920556545258,0.21991148591041565,4.955997467041016,-2.0877439975738525,-4.517858505249023,-0.48380526900291443,0.09773843735456467,0.7904596328735352,3.8067808151245117,-2.82515811920166,-6.936002254486084,-1.1789699792861938,0.2871066629886627,1.1313223838806152,2.1595699787139893,-5.568912982940674,-7.735665798187256,-1.9339994192123413,0.44593164324760437,1.0042624473571777,2.6455929279327393,-7.797914981842041,-7.374141216278076,-1.7043139934539795,0.14905111491680145,0.740368664264679,5.118803024291992,-8.69334602355957,-6.347028732299805,-1.0946705341339111,-0.22602014243602753,0.4031710624694824,5.9519853591918945,-7.99184513092041,-5.389348030090332,-0.16737708449363708,-0.3885102868080139,-0.20402899384498596,5.781997203826904,-7.307103633880615,-5.738901615142822,0.3494149148464203,-0.4398229718208313,-0.475253164768219,6.217741966247559,-6.636727333068848,-5.841852188110352,0.5852088928222656,-0.46303585171699524,-0.588874101638794,6.370970726013184,-6.212953567504883,-5.841852188110352,0.3836233615875244,-0.3090978264808655,-0.49724429845809937,5.480327606201172,-7.1921820640563965,-6.497863292694092,-0.012217304669320583,-0.030543262138962746,-0.3286454975605011,4.72376012802124,-8.372523307800293,-6.677428722381592,0.20525072515010834,-0.0012217304902151227,-0.35674530267715454,4.197035789489746,-8.473079681396484,-6.423643112182617,0.8332201838493347,-0.06475171446800232,-0.46181413531303406,3.6176388263702393,-7.319074630737305,-5.770026206970215,1.7092009782791138,-0.09285151958465576,-0.5106833577156067,3.5003228187561035,-5.722142219543457,-5.07570743560791,1.7519614696502686,-0.14782938361167908,-0.47769662737846375,3.84269380569458,-5.65031623840332,-4.836287498474121,1.244943380355835,-0.1966986060142517,-0.3836233615875244,4.311957359313965,-6.169857978820801,-4.95120906829834,0.29565876722335815,-0.2370157092809677,-0.2919935882091522,4.587290287017822,-6.519411087036133,-5.590460777282715,0.03420845419168472,-0.22357667982578278,-0.24434609711170197,4.790797710418701,-6.57926607131958,-5.987898349761963,0.021991148591041565,-0.2076941877603531,-0.21868975460529327,4.975151062011719,-6.485892295837402,-6.253654956817627,0.06719517707824707,-0.16493362188339233,-0.21380282938480377,4.910507678985596,-6.124367713928223,-6.086060523986816,0.1466076523065567,-0.10751228034496307,-0.18814650177955627,4.809951305389404,-5.8873419761657715,-5.9304375648498535,0.17104226350784302,-0.030543262138962746,-0.14905111491680145,4.867412090301514,-6.030993938446045,-5.612008571624756,0.14049901068210602,-0.013439035043120384,-0.10018189996480942,4.8482584953308105,-6.31829833984375,-5.386953830718994,0.05497787147760391,-0.021991148591041565,-0.09040805697441101,4.845864295959473,-6.512228488922119,-5.377377033233643,0.05619960278272629,-0.03787364438176155,-0.07452555745840073,4.8051629066467285,-6.629544734954834,-5.327098846435547,0.024434609338641167,-0.05009094998240471,-0.07819075137376785,4.817133903503418,-6.658275127410889,-5.43723201751709,0.02321287989616394,-0.06963863968849182,-0.05497787147760391,4.7620673179626465,-6.675034523010254,-5.513846397399902,0.05253441259264946,-0.05864306539297104,-0.04153883829712868,4.764461517333984,-6.414066314697266,-5.499481201171875,0.05375614017248154,-0.036651913076639175,-0.02321287989616394,4.8602294921875,-6.691793918609619,-5.449203014373779,0.0024434609804302454,-0.02932153269648552,0.024434609338641167,4.833893299102783,-6.722918510437012,-5.463568210601807,-0.01466076634824276,-0.013439035043120384,0.019547687843441963,4.771644115447998,-6.607996463775635,-5.485116004943848,-0.0024434609804302454,-0.015882495790719986,0.01466076634824276
