label,sub_label,user,file_id,watch_accel_x0,watch_accel_y0,watch_accel_z0,watch_gyros_x0,watch_gyros_y0,watch_gyros_z0,watch_accel_x1,watch_accel_y1,watch_accel_z1,watch_gyros_x1,watch_gyros_y1,watch_gyros_z1,watch_accel_x2,watch_accel_y2,watch_accel_z2,watch_gyros_x2,watch_gyros_y2,watch_gyros_z2,watch_accel_x3,watch_accel_y3,watch_accel_z3,watch_gyros_x3,watch_gyros_y3,watch_gyros_z3,watch_accel_x4,watch_accel_y4,watch_accel_z4,watch_gyros_x4,watch_gyros_y4,watch_gyros_z4,watch_accel_x5,watch_accel_y5,watch_accel_z5,watch_gyros_x5,watch_gyros_y5,watch_gyros_z5,watch_accel_x6,watch_accel_y6,watch_accel_z6,watch_gyros_x6,watch_gyros_y6,watch_gyros_z6,watch_accel_x7,watch_accel_y7,watch_accel_z7,watch_gyros_x7,watch_gyros_y7,watch_gyros_z7,watch_accel_x8,watch_accel_y8,watch_accel_z8,watch_gyros_x8,watch_gyros_y8,watch_gyros_z8,watch_accel_x9,watch_accel_y9,watch_accel_z9,watch_gyros_x9,watch_gyros_y9,watch_gyros_z9,watch_accel_x10,watch_accel_y10,watch_accel_z10,watch_gyros_x10,watch_gyros_y10,watch_gyros_z10,watch_accel_x11,watch_accel_y11,watch_accel_z11,watch_gyros_x11,watch_gyros_y11,watch_gyros_z11,watch_accel_x12,watch_accel_y12,watch_accel_z12,watch_gyros_x12,watch_gyros_y12,watch_gyros_z12,watch_accel_x13,watch_accel_y13,watch_accel_z13,watch_gyros_x13,watch_gyros_y13,watch_gyros_z13,watch_accel_x14,watch_accel_y14,watch_accel_z14,watch_gyros_x14,watch_gyros_y14,watch_gyros_z14,watch_accel_x15,watch_accel_y15,watch_accel_z15,watch_gyros_x15,watch_gyros_y15,watch_gyros_z15,watch_accel_x16,watch_accel_y16,watch_accel_z16,watch_gyros_x16,watch_gyros_y16,watch_gyros_z16,watch_accel_x17,watch_accel_y17,watch_accel_z17,watch_gyros_x17,watch_gyros_y17,watch_gyros_z17,watch_accel_x18,watch_accel_y18,watch_accel_z18,watch_gyros_x18,watch_gyros_y18,watch_gyros_z18,watch_accel_x19,watch_accel_y19,watch_accel_z19,watch_gyros_x19,watch_gyros_y19,watch_gyros_z19,watch_accel_x20,watch_accel_y20,watch_accel_z20,watch_gyros_x20,watch_gyros_y20,watch_gyros_z20,watch_accel_x21,watch_accel_y21,watch_accel_z21,watch_gyros_x21,watch_gyros_y21,watch_gyros_z21,watch_accel_x22,watch_accel_y22,watch_accel_z22,watch_gyros_x22,watch_gyros_y22,watch_gyros_z22,watch_accel_x23,watch_accel_y23,watch_accel_z23,watch_gyros_x23,watch_gyros_y23,watch_gyros_z23,watch_accel_x24,watch_accel_y24,watch_accel_z24,watch_gyros_x24,watch_gyros_y24,watch_gyros_z24,watch_accel_x25,watch_accel_y25,watch_accel_z25,watch_gyros_x25,watch_gyros_y25,watch_gyros_z25,watch_accel_x26,watch_accel_y26,watch_accel_z26,watch_gyros_x26,watch_gyros_y26,watch_gyros_z26,watch_accel_x27,watch_accel_y27,watch_accel_z27,watch_gyros_x27,watch_gyros_y27,watch_gyros_z27,watch_accel_x28,watch_accel_y28,watch_accel_z28,watch_gyros_x28,watch_gyros_y28,watch_gyros_z28,watch_accel_x29,watch_accel_y29,watch_accel_z29,watch_gyros_x29,watch_gyros_y29,watch_gyros_z29,watch_accel_x30,watch_accel_y30,watch_accel_z30,watch_gyros_x30,watch_gyros_y30,watch_gyros_z30,watch_accel_x31,watch_accel_y31,watch_accel_z31,watch_gyros_x31,watch_gyros_y31,watch_gyros_z31,watch_accel_x32,watch_accel_y32,watch_accel_z32,watch_gyros_x32,watch_gyros_y32,watch_gyros_z32,watch_accel_x33,watch_accel_y33,watch_accel_z33,watch_gyros_x33,watch_gyros_y33,watch_gyros_z33,watch_accel_x34,watch_accel_y34,watch_accel_z34,watch_gyros_x34,watch_gyros_y34,watch_gyros_z34,watch_accel_x35,watch_accel_y35,watch_accel_z35,watch_gyros_x35,watch_gyros_y35,watch_gyros_z35,watch_accel_x36,watch_accel_y36,watch_accel_z36,watch_gyros_x36,watch_gyros_y36,watch_gyros_z36,watch_accel_x37,watch_accel_y37,watch_accel_z37,watch_gyros_x37,watch_gyros_y37,watch_gyros_z37,watch_accel_x38,watch_accel_y38,watch_accel_z38,watch_gyros_x38,watch_gyros_y38,watch_gyros_z38,watch_accel_x39,watch_accel_y39,watch_accel_z39,watch_gyros_x39,watch_gyros_y39,watch_gyros_z39,watch_accel_x40,watch_accel_y40,watch_accel_z40,watch_gyros_x40,watch_gyros_y40,watch_gyros_z40,watch_accel_x41,watch_accel_y41,watch_accel_z41,watch_gyros_x41,watch_gyros_y41,watch_gyros_z41,watch_accel_x42,watch_accel_y42,watch_accel_z42,watch_gyros_x42,watch_gyros_y42,watch_gyros_z42,watch_accel_x43,watch_accel_y43,watch_accel_z43,watch_gyros_x43,watch_gyros_y43,watch_gyros_z43,watch_accel_x44,watch_accel_y44,watch_accel_z44,watch_gyros_x44,watch_gyros_y44,watch_gyros_z44,watch_accel_x45,watch_accel_y45,watch_accel_z45,watch_gyros_x45,watch_gyros_y45,watch_gyros_z45,watch_accel_x46,watch_accel_y46,watch_accel_z46,watch_gyros_x46,watch_gyros_y46,watch_gyros_z46
shake,10201,208,208_10201_260414155058402,5.116408824920654,-5.87776517868042,-6.224924564361572,-0.6976081132888794,0.7806857824325562,0.5827654600143433,5.623979568481445,-5.829881191253662,-4.888959884643555,-1.0299187898635864,0.8503243923187256,0.8307767510414124,5.875370979309082,-5.657498836517334,-4.865017890930176,-0.8136724829673767,0.7562511563301086,1.0897835493087769,4.228160381317139,-5.681440830230713,-8.001421928405762,-0.35674530267715454,0.8478809595108032,1.1081095933914185,1.3862427473068237,-6.296750545501709,-6.66785192489624,-0.08307767659425735,1.0433578491210938,0.8087855577468872,1.8986018896102905,-7.266402244567871,-4.3622355461120605,-0.21991148591041565,0.31154128909111023,0.18936823308467865,4.745307922363281,-7.6997528076171875,-3.3039982318878174,-0.32131510972976685,-0.31642818450927734,-0.16737708449363708,5.920860767364502,-8.200140953063965,-3.6391866207122803,-0.26511552929878235,-0.6682865619659424,-0.66584312915802,5.932831764221191,-7.043741226196289,-4.4723687171936035,-0.07452555745840073,-0.8979719281196594,-1.0726794004440308,6.1267619132995605,-6.766014099121094,-5.523423194885254,-0.1368338167667389,-0.978606104850769,-1.1753047704696655,6.265625953674316,-6.636727333068848,-6.821080684661865,0.0403171069920063,-0.8723155856132507,-1.0299187898635864,6.392518520355225,-6.189011573791504,-7.630321025848389,0.2675589919090271,-0.48380526900291443,-0.8002334833145142,5.626373767852783,-7.728483200073242,-7.704541206359863,0.6047565937042236,-0.06475171446800232,-0.5937610268592834,4.046200752258301,-8.324639320373535,-6.100425720214844,1.3072515726089478,0.2981022298336029,-0.34574973583221436,3.754108190536499,-4.9368438720703125,-5.849034786224365,2.0280725955963135,0.24434609711170197,-0.1319468915462494,3.734954595565796,-1.556231141090393,-5.43723201751709,1.1582005023956299,0.3885102868080139,0.4495968222618103,3.689464807510376,-3.627215623855591,-5.710171222686768,-0.44104471802711487,0.37140607833862305,0.7293730974197388,3.7158010005950928,-5.2672438621521,-7.68538761138916,-1.0726794004440308,0.32131510972976685,0.9578366875648499,3.2297780513763428,-5.236119270324707,-6.916848659515381,-0.9651671051979065,0.3933972120285034,0.7586946487426758,3.2417490482330322,-5.9304375648498535,-5.999869346618652,-0.8723155856132507,0.2528982162475586,0.47769662737846375,4.6734819412231445,-6.2847795486450195,-5.485116004943848,-0.7806857824325562,-0.22357667982578278,0.02687807008624077,5.9974751472473145,-7.556100368499756,-4.307168960571289,-0.7073819637298584,-0.3799581825733185,-0.23945917189121246,7.570465564727783,-8.324639320373535,-4.726154327392578,-0.5619960427284241,-0.5766568183898926,-0.475253164768219,7.702147006988525,-7.94635534286499,-4.774038314819336,0.021991148591041565,-0.3799581825733185,-0.5705481171607971,6.368576526641846,-7.501033782958984,-5.499481201171875,0.3787364661693573,-0.14538592100143433,-0.6010913848876953,5.372588634490967,-7.101202011108398,-6.3973069190979,0.5900958180427551,-0.08918632566928864,-0.5400048494338989,4.896142482757568,-6.5912370681762695,-6.593631267547607,0.9346238374710083,-0.05864306539297104,-0.3836233615875244,4.477157115936279,-6.289567947387695,-6.1770405769348145,1.0910053253173828,-0.010995574295520782,-0.3176499307155609,3.928884983062744,-5.803544998168945,-5.564124584197998,1.0580185651779175,-0.004886921960860491,-0.2565633952617645,3.995922565460205,-5.580883979797363,-5.5114521980285645,0.8258898258209229,-0.1111774742603302,-0.23457226157188416,4.2975921630859375,-5.7341132164001465,-5.137956619262695,0.45814892649650574,-0.15882496535778046,-0.16371189057826996,4.774038314819336,-6.36378812789917,-5.374982833862305,-0.03298672288656235,-0.22846360504627228,-0.1722639948129654,5.12119722366333,-6.457161903381348,-5.808333396911621,-0.03176499158143997,-0.26145032048225403,-0.18570303916931152,5.453991413116455,-6.335057735443115,-5.913678169250488,0.03787364438176155,-0.2028072625398636,-0.19303341209888458,5.544970989227295,-6.244078159332275,-5.882553577423096,0.1417207419872284,-0.14782938361167908,-0.17470745742321014,5.458779811859131,-5.9088897705078125,-5.779603004455566,0.19303341209888458,-0.08429940044879913,-0.13316862285137177,5.360617637634277,-5.940014362335205,-5.829881191253662,0.18081611394882202,-0.06108652427792549,-0.10873401165008545,5.123591423034668,-6.052541732788086,-5.559336185455322,0.19792033731937408,-0.036651913076639175,-0.09040805697441101,5.049371242523193,-6.023811340332031,-5.628767967224121,0.10995574295520782,-0.07208210229873657,-0.10018189996480942,5.078101634979248,-6.076483726501465,-5.612008571624756,0.04886921867728233,-0.09040805697441101,-0.09773843735456467,4.93923807144165,-6.232107162475586,-5.657498836517334,0.05497787147760391,-0.09285151958465576,-0.09040805697441101,5.063736438751221,-6.203376770019531,-5.772420406341553,0.051312681287527084,-0.08796459436416626,-0.08307767659425735,5.044582843780518,-6.268020153045654,-5.681440830230713,0.0354301854968071,-0.06719517707824707,-0.05619960278272629,5.135562419891357,-6.464344501495361,-5.566518783569336,-0.015882495790719986,-0.03420845419168472,-0.0403171069920063,5.166687488555908,-6.303933143615723,-5.547365188598633,0.030543262138962746,-0.036651913076639175,-0.03176499158143997,5.236119270324707,-6.110002517700195,-5.604825973510742,0.018325956538319588,-0.0354301854968071,-0.01466076634824276,5.245696067810059,-6.268020153045654,-5.674258232116699,-0.01710422709584236,-0.02321287989616394,0.02321287989616394
