label,sub_label,user,file_id,watch_accel_x0,watch_accel_y0,watch_accel_z0,watch_gyros_x0,watch_gyros_y0,watch_gyros_z0,watch_accel_x1,watch_accel_y1,watch_accel_z1,watch_gyros_x1,watch_gyros_y1,watch_gyros_z1,watch_accel_x2,watch_accel_y2,watch_accel_z2,watch_gyros_x2,watch_gyros_y2,watch_gyros_z2,watch_accel_x3,watch_accel_y3,watch_accel_z3,watch_gyros_x3,watch_gyros_y3,watch_gyros_z3,watch_accel_x4,watch_accel_y4,watch_accel_z4,watch_gyros_x4,watch_gyros_y4,watch_gyros_z4,watch_accel_x5,watch_accel_y5,watch_accel_z5,watch_gyros_x5,watch_gyros_y5,watch_gyros_z5,watch_accel_x6,watch_accel_y6,watch_accel_z6,watch_gyros_x6,watch_gyros_y6,watch_gyros_z6,watch_accel_x7,watch_accel_y7,watch_accel_z7,watch_gyros_x7,watch_gyros_y7,watch_gyros_z7,watch_accel_x8,watch_accel_y8,watch_accel_z8,watch_gyros_x8,watch_gyros_y8,watch_gyros_z8,watch_accel_x9,watch_accel_y9,watch_accel_z9,watch_gyros_x9,watch_gyros_y9,watch_gyros_z9,watch_accel_x10,watch_accel_y10,watch_accel_z10,watch_gyros_x10,watch_gyros_y10,watch_gyros_z10,watch_accel_x11,watch_accel_y11,watch_accel_z11,watch_gyros_x11,watch_gyros_y11,watch_gyros_z11,watch_accel_x12,watch_accel_y12,watch_accel_z12,watch_gyros_x12,watch_gyros_y12,watch_gyros_z12,watch_accel_x13,watch_accel_y13,watch_accel_z13,watch_gyros_x13,watch_gyros_y13,watch_gyros_z13,watch_accel_x14,watch_accel_y14,watch_accel_z14,watch_gyros_x14,watch_gyros_y14,watch_gyros_z14,watch_accel_x15,watch_accel_y15,watch_accel_z15,watch_gyros_x15,watch_gyros_y15,watch_gyros_z15,watch_accel_x16,watch_accel_y16,watch_accel_z16,watch_gyros_x16,watch_gyros_y16,watch_gyros_z16,watch_accel_x17,watch_accel_y17,watch_accel_z17,watch_gyros_x17,watch_gyros_y17,watch_gyros_z17,watch_accel_x18,watch_accel_y18,watch_accel_z18,watch_gyros_x18,watch_gyros_y18,watch_gyros_z18,watch_accel_x19,watch_accel_y19,watch_accel_z19,watch_gyros_x19,watch_gyros_y19,watch_gyros_z19,watch_accel_x20,watch_accel_y20,watch_accel_z20,watch_gyros_x20,watch_gyros_y20,watch_gyros_z20,watch_accel_x21,watch_accel_y21,watch_accel_z21,watch_gyros_x21,watch_gyros_y21,watch_gyros_z21,watch_accel_x22,watch_accel_y22,watch_accel_z22,watch_gyros_x22,watch_gyros_y22,watch_gyros_z22,watch_accel_x23,watch_accel_y23,watch_accel_z23,watch_gyros_x23,watch_gyros_y23,watch_gyros_z23,watch_accel_x24,watch_accel_y24,watch_accel_z24,watch_gyros_x24,watch_gyros_y24,watch_gyros_z24,watch_accel_x25,watch_accel_y25,watch_accel_z25,watch_gyros_x25,watch_gyros_y25,watch_gyros_z25,watch_accel_x26,watch_accel_y26,watch_accel_z26,watch_gyros_x26,watch_gyros_y26,watch_gyros_z26,watch_accel_x27,watch_accel_y27,watch_accel_z27,watch_gyros_x27,watch_gyros_y27,watch_gyros_z27,watch_accel_x28,watch_accel_y28,watch_accel_z28,watch_gyros_x28,watch_gyros_y28,watch_gyros_z28,watch_accel_x29,watch_accel_y29,watch_accel_z29,watch_gyros_x29,watch_gyros_y29,watch_gyros_z29,watch_accel_x30,watch_accel_y30,watch_accel_z30,watch_gyros_x30,watch_gyros_y30,watch_gyros_z30,watch_accel_x31,watch_accel_y31,watch_accel_z31,watch_gyros_x31,watch_gyros_y31,watch_gyros_z31,watch_accel_x32,watch_accel_y32,watch_accel_z32,watch_gyros_x32,watch_gyros_y32,watch_gyros_z32,watch_accel_x33,watch_accel_y33,watch_accel_z33,watch_gyros_x33,watch_gyros_y33,watch_gyros_z33,watch_accel_x34,watch_accel_y34,watch_accel_z34,watch_gyros_x34,watch_gyros_y34,watch_gyros_z34,watch_accel_x35,watch_accel_y35,watch_accel_z35,watch_gyros_x35,watch_gyros_y35,watch_gyros_z35,watch_accel_x36,watch_accel_y36,watch_accel_z36,watch_gyros_x36,watch_gyros_y36,watch_gyros_z36,watch_accel_x37,watch_accel_y37,watch_accel_z37,watch_gyros_x37,watch_gyros_y37,watch_gyros_z37,watch_accel_x38,watch_accel_y38,watch_accel_z38,watch_gyros_x38,watch_gyros_y38,watch_gyros_z38,watch_accel_x39,watch_accel_y39,watch_accel_z39,watch_gyros_x39,watch_gyros_y39,watch_gyros_z39,watch_accel_x40,watch_accel_y40,watch_accel_z40,watch_gyros_x40,watch_gyros_y40,watch_gyros_z40,watch_accel_x41,watch_accel_y41,watch_accel_z41,watch_gyros_x41,watch_gyros_y41,watch_gyros_z41,watch_accel_x42,watch_accel_y42,watch_accel_z42,watch_gyros_x42,watch_gyros_y42,watch_gyros_z42,watch_accel_x43,watch_accel_y43,watch_accel_z43,watch_gyros_x43,watch_gyros_y43,watch_gyros_z43,watch_accel_x44,watch_accel_y44,watch_accel_z44,watch_gyros_x44,watch_gyros_y44,watch_gyros_z44,watch_accel_x45,watch_accel_y45,watch_accel_z45,watch_gyros_x45,watch_gyros_y45,watch_gyros_z45,watch_accel_x46,watch_accel_y46,watch_accel_z46,watch_gyros_x46,watch_gyros_y46,watch_gyros_z46,watch_accel_x47,watch_accel_y47,watch_accel_z47,watch_gyros_x47,watch_gyros_y47,watch_gyros_z47,watch_accel_x48,watch_accel_y48,watch_accel_z48,watch_gyros_x48,watch_gyros_y48,watch_gyros_z48,watch_accel_x49,watch_accel_y49,watch_accel_z49,watch_gyros_x49,watch_gyros_y49,watch_gyros_z49,watch_accel_x50,watch_accel_y50,watch_accel_z50,watch_gyros_x50,watch_gyros_y50,watch_gyros_z50,watch_accel_x51,watch_accel_y51,watch_accel_z51,watch_gyros_x51,watch_gyros_y51,watch_gyros_z51,watch_accel_x52,watch_accel_y52,watch_accel_z52,watch_gyros_x52,watch_gyros_y52,watch_gyros_z52
shake,10201,206,206_10201_260413222238084,6.076483726501465,-9.14585018157959,-6.303933143615723,1.264491081237793,0.09529497474431992,0.1014036312699318,6.311115741729736,-9.99100399017334,-6.636727333068848,2.9333748817443848,0.11850785464048386,-0.00733038317412138,6.907271862030029,-9.339780807495117,-6.301538944244385,4.117231845855713,0.16004669666290283,-0.19058994948863983,7.405265808105469,-7.448361396789551,-4.8267107009887695,4.999320983886719,0.3897320330142975,-0.27488934993743896,7.390900611877441,-4.7405195236206055,-2.097320795059204,4.398229598999023,0.4447098970413208,-0.19425514340400696,7.273584842681885,-2.1715409755706787,-0.9241618514060974,2.8124237060546875,0.35674530267715454,-0.18814650177955627,6.0836663246154785,-0.13168109953403473,-1.525106430053711,0.27611109614372253,0.10751228034496307,0.25534167885780334,2.9161376953125,-1.139639973640442,-1.8076223134994507,-0.8833111524581909,0.06841690838336945,0.6352998614311218,2.1068975925445557,-2.8826189041137695,-2.7676970958709717,-1.958433985710144,-0.06475171446800232,0.42760565876960754,5.7556610107421875,-4.900930881500244,-3.2321722507476807,-2.9639182090759277,-0.4300491213798523,0.010995574295520782,9.255983352661133,-8.152256965637207,-3.7636849880218506,-3.595552921295166,-0.5962044596672058,-0.2871066629886627,9.57201862335205,-8.951920509338379,-4.338293552398682,-3.054326295852661,-0.3604104816913605,-0.3530801236629486,8.327033042907715,-6.84981107711792,-4.359841346740723,-2.417804718017578,-0.15760323405265808,-0.36163222789764404,7.333439826965332,-4.67827033996582,-4.8267107009887695,-2.2272145748138428,-0.15515977144241333,-0.3384193480014801,6.897695064544678,-4.692635536193848,-6.007051944732666,-2.6597073078155518,-0.1771509200334549,-0.30054569244384766,6.926425457000732,-8.051700592041016,-7.532158374786377,-2.6560420989990234,-0.1270599663257599,-0.26022860407829285,6.825869083404541,-13.017274856567383,-9.72285270690918,-1.5992451906204224,0.0708603709936142,-0.5155702829360962,5.521028995513916,-14.92066478729248,-8.300697326660156,0.7183775305747986,0.15515977144241333,-0.6047565937042236,4.960785865783691,-9.560047149658203,-8.382100105285645,4.320038795471191,-0.018325956538319588,-0.6963863968849182,6.411672115325928,-5.25527286529541,-7.572859764099121,8.199033737182617,-0.00366519158706069,-0.46303585171699524,7.448361396789551,-1.525106430053711,-6.445190906524658,7.725001811981201,0.3677408695220947,-0.47280970215797424,7.5632829666137695,1.7741034030914307,-3.4763808250427246,4.2613959312438965,0.5766568183898926,0.21502456068992615,4.8602294921875,4.891354084014893,1.1420341730117798,1.5454890727996826,0.3530801236629486,0.9651671051979065,1.2641384601593018,0.7805097699165344,0.8690952062606812,-0.4813618063926697,0.1014036312699318,1.1239920854568481,5.185841083526611,-2.5306711196899414,-0.13407529890537262,-2.361604928970337,-0.5314527750015259,0.5693264007568359,8.276755332946777,-5.494692802429199,-2.9712042808532715,-3.7873644828796387,-0.8112290501594543,0.1918116807937622,9.057265281677246,-10.620678901672363,-5.616796970367432,-4.105014324188232,-0.7635815739631653,0.04886921867728233,8.875306129455566,-9.648633003234863,-6.114790916442871,-2.858849287033081,-0.4593706727027893,0.08918632566928864,7.443572998046875,-7.060500621795654,-6.112396717071533,-1.9144517183303833,-0.24556782841682434,0.08307767659425735,6.256049156188965,-6.490680694580078,-6.440402507781982,-1.2021827697753906,-0.09651670604944229,0.028099801391363144,5.772420406341553,-5.894524574279785,-6.301538944244385,-0.8100073337554932,-0.09285151958465576,0.04398229718208313,6.098031520843506,-5.372588634490967,-5.8203043937683105,-0.485027015209198,-0.06841690838336945,0.07696902006864548,5.7125654220581055,-5.238513469696045,-4.90571928024292,-0.4251621961593628,-0.01710422709584236,0.14905111491680145,5.461174011230469,-5.149928092956543,-4.446032524108887,-0.7098253965377808,-0.051312681287527084,0.23457226157188416,6.052541732788086,-5.348646640777588,-5.188235282897949,-1.330464482307434,-0.18936823308467865,0.22479841113090515,6.265625953674316,-6.433219909667969,-5.552153587341309,-1.225395679473877,-0.1160643994808197,0.26145032048225403,6.150704383850098,-6.308721542358398,-5.7341132164001465,-0.7550294399261475,-0.04398229718208313,0.24434609711170197,6.189011573791504,-6.44279670715332,-6.411672115325928,-0.5277875661849976,-0.042760565876960754,0.19914206862449646,6.088454723358154,-6.730101108551025,-6.277596950531006,-0.32620203495025635,0.019547687843441963,0.16249015927314758,6.251260757446289,-6.2847795486450195,-6.0190229415893555,0.00733038317412138,0.013439035043120384,0.12095131725072861,6.361393928527832,-5.880159378051758,-5.664681434631348,0.375071257352829,0.05375614017248154,0.07819075137376785,5.9304375648498535,-5.616796970367432,-5.456385612487793,0.4862487316131592,0.09651670604944229,0.09651670604944229,5.861005783081055,-5.331887245178223,-5.329493045806885,0.3029891550540924,0.10018189996480942,0.07941248267889023,5.815515995025635,-5.674258232116699,-5.03021764755249,0.16371189057826996,0.10384709388017654,0.08429940044879913,5.961562156677246,-5.69580602645874,-5.011064052581787,0.07452555745840073,0.04642575979232788,0.059864792972803116,6.016628742218018,-5.683835029602051,-5.240907669067383,0.012217304669320583,0.045204028487205505,0.05375614017248154,5.95677375793457,-6.035782337188721,-5.264849662780762,0.03176499158143997,0.05253441259264946,0.05497787147760391,5.978321552276611,-5.743690013885498,-5.47075080871582,-0.010995574295520782,0.04886921867728233,0.021991148591041565,5.918466567993164,-5.906495571136475,-5.509057998657227,-0.036651913076639175,0.06475171446800232,0.0354301854968071,5.928043365478516,-6.011840343475342,-5.4444146156311035,-0.00855211354792118,0.06475171446800232,0.02687807008624077,5.980715751647949,-6.107608318328857,-5.446808815002441,0.10262536257505417,0.05619960278272629,0.00366519158706069,6.023811340332031,-6.1985883712768555,-5.398924827575684,0.18814650177955627,0.06841690838336945,-0.010995574295520782,6.074089527130127,-5.904101371765137,-5.298368453979492,0.35063666105270386,0.05253441259264946,-0.02321287989616394
