label,sub_label,user,file_id,watch_accel_x0,watch_accel_y0,watch_accel_z0,watch_gyros_x0,watch_gyros_y0,watch_gyros_z0,watch_accel_x1,watch_accel_y1,watch_accel_z1,watch_gyros_x1,watch_gyros_y1,watch_gyros_z1,watch_accel_x2,watch_accel_y2,watch_accel_z2,watch_gyros_x2,watch_gyros_y2,watch_gyros_z2,watch_accel_x3,watch_accel_y3,watch_accel_z3,watch_gyros_x3,watch_gyros_y3,watch_gyros_z3,watch_accel_x4,watch_accel_y4,watch_accel_z4,watch_gyros_x4,watch_gyros_y4,watch_gyros_z4,watch_accel_x5,watch_accel_y5,watch_accel_z5,watch_gyros_x5,watch_gyros_y5,watch_gyros_z5,watch_accel_x6,watch_accel_y6,watch_accel_z6,watch_gyros_x6,watch_gyros_y6,watch_gyros_z6,watch_accel_x7,watch_accel_y7,watch_accel_z7,watch_gyros_x7,watch_gyros_y7,watch_gyros_z7,watch_accel_x8,watch_accel_y8,watch_accel_z8,watch_gyros_x8,watch_gyros_y8,watch_gyros_z8,watch_accel_x9,watch_accel_y9,watch_accel_z9,watch_gyros_x9,watch_gyros_y9,watch_gyros_z9,watch_accel_x10,watch_accel_y10,watch_accel_z10,watch_gyros_x10,watch_gyros_y10,watch_gyros_z10,watch_accel_x11,watch_accel_y11,watch_accel_z11,watch_gyros_x11,watch_gyros_y11,watch_gyros_z11,watch_accel_x12,watch_accel_y12,watch_accel_z12,watch_gyros_x12,watch_gyros_y12,watch_gyros_z12,watch_accel_x13,watch_accel_y13,watch_accel_z13,watch_gyros_x13,watch_gyros_y13,watch_gyros_z13,watch_accel_x14,watch_accel_y14,watch_accel_z14,watch_gyros_x14,watch_gyros_y14,watch_gyros_z14,watch_accel_x15,watch_accel_y15,watch_accel_z15,watch_gyros_x15,watch_gyros_y15,watch_gyros_z15,watch_accel_x16,watch_accel_y16,watch_accel_z16,watch_gyros_x16,watch_gyros_y16,watch_gyros_z16,watch_accel_x17,watch_accel_y17,watch_accel_z17,watch_gyros_x17,watch_gyros_y17,watch_gyros_z17,watch_accel_x18,watch_accel_y18,watch_accel_z18,watch_gyros_x18,watch_gyros_y18,watch_gyros_z18,watch_accel_x19,watch_accel_y19,watch_accel_z19,watch_gyros_x19,watch_gyros_y19,watch_gyros_z19,watch_accel_x20,watch_accel_y20,watch_accel_z20,watch_gyros_x20,watch_gyros_y20,watch_gyros_z20,watch_accel_x21,watch_accel_y21,watch_accel_z21,watch_gyros_x21,watch_gyros_y21,watch_gyros_z21,watch_accel_x22,watch_accel_y22,watch_accel_z22,watch_gyros_x22,watch_gyros_y22,watch_gyros_z22,watch_accel_x23,watch_accel_y23,watch_accel_z23,watch_gyros_x23,watch_gyros_y23,watch_gyros_z23,watch_accel_x24,watch_accel_y24,watch_accel_z24,watch_gyros_x24,watch_gyros_y24,watch_gyros_z24,watch_accel_x25,watch_accel_y25,watch_accel_z25,watch_gyros_x25,watch_gyros_y25,watch_gyros_z25,watch_accel_x26,watch_accel_y26,watch_accel_z26,watch_gyros_x26,watch_gyros_y26,watch_gyros_z26,watch_accel_x27,watch_accel_y27,watch_accel_z27,watch_gyros_x27,watch_gyros_y27,watch_gyros_z27,watch_accel_x28,watch_accel_y28,watch_accel_z28,watch_gyros_x28,watch_gyros_y28,watch_gyros_z28,watch_accel_x29,watch_accel_y29,watch_accel_z29,watch_gyros_x29,watch_gyros_y29,watch_gyros_z29,watch_accel_x30,watch_accel_y30,watch_accel_z30,watch_gyros_x30,watch_gyros_y30,watch_gyros_z30,watch_accel_x31,watch_accel_y31,watch_accel_z31,watch_gyros_x31,watch_gyros_y31,watch_gyros_z31,watch_accel_x32,watch_accel_y32,watch_accel_z32,watch_gyros_x32,watch_gyros_y32,watch_gyros_z32,watch_accel_x33,watch_accel_y33,watch_accel_z33,watch_gyros_x33,watch_gyros_y33,watch_gyros_z33,watch_accel_x34,watch_accel_y34,watch_accel_z34,watch_gyros_x34,watch_gyros_y34,watch_gyros_z34,watch_accel_x35,watch_accel_y35,watch_accel_z35,watch_gyros_x35,watch_gyros_y35,watch_gyros_z35,watch_accel_x36,watch_accel_y36,watch_accel_z36,watch_gyros_x36,watch_gyros_y36,watch_gyros_z36,watch_accel_x37,watch_accel_y37,watch_accel_z37,watch_gyros_x37,watch_gyros_y37,watch_gyros_z37,watch_accel_x38,watch_accel_y38,watch_accel_z38,watch_gyros_x38,watch_gyros_y38,watch_gyros_z38,watch_accel_x39,watch_accel_y39,watch_accel_z39,watch_gyros_x39,watch_gyros_y39,watch_gyros_z39,watch_accel_x40,watch_accel_y40,watch_accel_z40,watch_gyros_x40,watch_gyros_y40,watch_gyros_z40,watch_accel_x41,watch_accel_y41,watch_accel_z41,watch_gyros_x41,watch_gyros_y41,watch_gyros_z41,watch_accel_x42,watch_accel_y42,watch_accel_z42,watch_gyros_x42,watch_gyros_y42,watch_gyros_z42,watch_accel_x43,watch_accel_y43,watch_accel_z43,watch_gyros_x43,watch_gyros_y43,watch_gyros_z43,watch_accel_x44,watch_accel_y44,watch_accel_z44,watch_gyros_x44,watch_gyros_y44,watch_gyros_z44,watch_accel_x45,watch_accel_y45,watch_accel_z45,watch_gyros_x45,watch_gyros_y45,watch_gyros_z45,watch_accel_x46,watch_accel_y46,watch_accel_z46,watch_gyros_x46,watch_gyros_y46,watch_gyros_z46,watch_accel_x47,watch_accel_y47,watch_accel_z47,watch_gyros_x47,watch_gyros_y47,watch_gyros_z47,watch_accel_x48,watch_accel_y48,watch_accel_z48,watch_gyros_x48,watch_gyros_y48,watch_gyros_z48,watch_accel_x49,watch_accel_y49,watch_accel_z49,watch_gyros_x49,watch_gyros_y49,watch_gyros_z49,watch_accel_x50,watch_accel_y50,watch_accel_z50,watch_gyros_x50,watch_gyros_y50,watch_gyros_z50,watch_accel_x51,watch_accel_y51,watch_accel_z51,watch_gyros_x51,watch_gyros_y51,watch_gyros_z51,watch_accel_x52,watch_accel_y52,watch_accel_z52,watch_gyros_x52,watch_gyros_y52,watch_gyros_z52
shake,10201,206,206_10201_260413222215364,5.30076265335083,-7.50582218170166,-4.043806552886963,0.1869247704744339,-0.00733038317412138,0.04642575979232788,5.468356609344482,-8.667010307312012,-4.467580318450928,0.18081611394882202,-0.06352998316287994,0.06475171446800232,6.057330131530762,-9.244012832641602,-4.8051629066467285,0.18081611394882202,-0.06475171446800232,-0.01466076634824276,6.641515731811523,-8.291120529174805,-5.3582234382629395,0.15515977144241333,0.028099801391363144,-0.34697145223617554,6.715735912322998,-6.512228488922119,-5.726930618286133,0.18448130786418915,0.04642575979232788,-0.2638937830924988,7.168240070343018,-4.99669885635376,-5.542576789855957,0.3591887652873993,0.0024434609804302454,-0.1319468915462494,6.531382083892822,-1.7812861204147339,-4.841075897216797,0.5876523852348328,-0.03298672288656235,0.5009095072746277,3.713406801223755,0.395043283700943,-3.866635799407959,0.7037167549133301,0.13805554807186127,1.0250319242477417,0.9888052940368652,0.021547814831137657,-4.900930881500244,0.19792033731937408,0.4691445231437683,1.0103710889816284,3.069366693496704,-3.287238836288452,-5.25527286529541,-2.3164010047912598,-0.16004669666290283,0.5314527750015259,8.018181800842285,-10.319009780883789,-6.876147270202637,-3.258355140686035,-0.6585127115249634,0.02932153269648552,8.858546257019043,-10.615890502929688,-6.598419666290283,-2.2773056030273438,-0.2822197377681732,-0.13316862285137177,6.98628044128418,-8.29590892791748,-6.852205276489258,-1.284038782119751,0.05742133408784866,-0.2626720666885376,5.832275390625,-6.732495307922363,-7.249642848968506,-0.45814892649650574,0.1417207419872284,-0.304210901260376,5.779603004455566,-6.071695327758789,-6.7492547035217285,0.4202753007411957,0.17592918872833252,-0.34086281061172485,5.980715751647949,-5.5329999923706055,-5.837063789367676,0.675616979598999,0.12095131725072861,-0.3225368559360504,5.815515995025635,-5.396530628204346,-5.659893035888672,0.39095374941825867,0.00366519158706069,-0.34208452701568604,5.497087001800537,-4.829104900360107,-5.75326681137085,0.16004669666290283,-0.04153883829712868,-0.2687807083129883,5.243301868438721,-5.147533416748047,-6.038176536560059,0.15760323405265808,-0.01466076634824276,-0.1820378452539444,5.669469833374023,-5.5329999923706055,-5.638344764709473,0.04886921867728233,-0.012217304669320583,-0.17104226350784302,5.655104637145996,-5.360617637634277,-5.193023681640625,-0.06352998316287994,0.01710422709584236,-0.14049901068210602,5.523423194885254,-5.571307182312012,-5.0014872550964355,-0.17104226350784302,-0.01466076634824276,-0.07452555745840073,5.461174011230469,-5.413290023803711,-5.616796970367432,-0.16982053220272064,-0.07452555745840073,-0.06963863968849182,5.30076265335083,-7.69735860824585,-6.560112476348877,0.013439035043120384,-0.02687807008624077,0.04642575979232788,5.1331682205200195,-10.357316970825195,-6.121973514556885,0.750142514705658,0.042760565876960754,0.10384709388017654,5.058948040008545,-9.605537414550781,-6.258443355560303,1.4758504629135132,0.028099801391363144,-0.02687807008624077,7.175422668457031,-8.489839553833008,-6.627150535583496,1.7556266784667969,0.03787364438176155,-0.2541199326515198,7.838616371154785,-4.764461517333984,-4.587290287017822,2.194227933883667,0.26145032048225403,-0.12950342893600464,5.978321552276611,-0.08140286058187485,-0.5434837937355042,2.428800106048584,0.18570303916931152,0.4495968222618103,2.7102363109588623,4.197035789489746,-2.4636335372924805,0.9553932547569275,-0.03298672288656235,1.263269305229187,0.8547300100326538,-0.47405192255973816,-6.888118267059326,-0.2076941877603531,-0.10873401165008545,1.2974777221679688,3.071760892868042,-6.026205539703369,-8.267178535461426,-1.7238616943359375,-0.251676470041275,0.8979719281196594,6.830657482147217,-10.927136421203613,-7.910442352294922,-2.0610592365264893,-0.33108896017074585,0.26511552929878235,9.327810287475586,-10.228029251098633,-6.026205539703369,-1.4001030921936035,-0.15760323405265808,0.021991148591041565,7.800309181213379,-9.026140213012695,-4.6950297355651855,-0.5082398653030396,0.20402899384498596,-0.04886921867728233,6.497863292694092,-8.437167167663574,-4.869806289672852,-0.2577851414680481,0.26145032048225403,-0.09162978827953339,5.595249176025391,-7.972691535949707,-5.351040840148926,-0.07819075137376785,0.25534167885780334,-0.14905111491680145,4.4508209228515625,-7.254431247711182,-5.60722017288208,-0.010995574295520782,0.26511552929878235,-0.20891591906547546,4.127603530883789,-6.495469093322754,-5.384559631347656,0.00855211354792118,0.20036379992961884,-0.2480112910270691,4.369418144226074,-6.095637321472168,-5.394136428833008,-0.05864306539297104,0.06230825558304787,-0.3188716471195221,4.8267107009887695,-5.760449409484863,-5.5114521980285645,-0.1160643994808197,0.03420845419168472,-0.32131510972976685,5.058948040008545,-5.547365188598633,-5.446808815002441,-0.17837265133857727,0.04764748737215996,-0.28099802136421204,5.403713226318359,-5.566518783569336,-5.638344764709473,-0.1966986060142517,0.03298672288656235,-0.20402899384498596,5.700594425201416,-5.439626216888428,-5.7341132164001465,-0.23579397797584534,0.04153883829712868,-0.16371189057826996,5.861005783081055,-5.621585369110107,-5.880159378051758,-0.2125810980796814,0.05497787147760391,-0.11728613078594208,5.875370979309082,-5.535394191741943,-5.765237808227539,-0.11362093687057495,0.0757472887635231,-0.08552113175392151,5.9304375648498535,-5.614402770996094,-5.559336185455322,0.08307767659425735,0.08429940044879913,-0.08918632566928864,6.222530364990234,-5.726930618286133,-5.327098846435547,0.14538592100143433,0.059864792972803116,-0.1014036312699318,6.035782337188721,-5.7987565994262695,-5.22175407409668,0.16249015927314758,0.06352998316287994,-0.09285151958465576,5.805939197540283,-5.95677375793457,-5.015852451324463,0.19547687470912933,0.06352998316287994,-0.07819075137376785,5.789179801940918,-6.054935932159424,-4.786009311676025,0.09773843735456467,0.045204028487205505,-0.1062905490398407,5.693411827087402,-6.335057735443115,-5.027823448181152,-0.09651670604944229,0.02932153269648552,-0.11850785464048386,5.702988624572754,-6.708553314208984,-5.4444146156311035,-0.19914206862449646,0.004886921960860491,-0.14416420459747314
