label,sub_label,user,file_id,watch_accel_x0,watch_accel_y0,watch_accel_z0,watch_gyros_x0,watch_gyros_y0,watch_gyros_z0,watch_accel_x1,watch_accel_y1,watch_accel_z1,watch_gyros_x1,watch_gyros_y1,watch_gyros_z1,watch_accel_x2,watch_accel_y2,watch_accel_z2,watch_gyros_x2,watch_gyros_y2,watch_gyros_z2,watch_accel_x3,watch_accel_y3,watch_accel_z3,watch_gyros_x3,watch_gyros_y3,watch_gyros_z3,watch_accel_x4,watch_accel_y4,watch_accel_z4,watch_gyros_x4,watch_gyros_y4,watch_gyros_z4,watch_accel_x5,watch_accel_y5,watch_accel_z5,watch_gyros_x5,watch_gyros_y5,watch_gyros_z5,watch_accel_x6,watch_accel_y6,watch_accel_z6,watch_gyros_x6,watch_gyros_y6,watch_gyros_z6,watch_accel_x7,watch_accel_y7,watch_accel_z7,watch_gyros_x7,watch_gyros_y7,watch_gyros_z7,watch_accel_x8,watch_accel_y8,watch_accel_z8,watch_gyros_x8,watch_gyros_y8,watch_gyros_z8,watch_accel_x9,watch_accel_y9,watch_accel_z9,watch_gyros_x9,watch_gyros_y9,watch_gyros_z9,watch_accel_x10,watch_accel_y10,watch_accel_z10,watch_gyros_x10,watch_gyros_y10,watch_gyros_z10,watch_accel_x11,watch_accel_y11,watch_accel_z11,watch_gyros_x11,watch_gyros_y11,watch_gyros_z11,watch_accel_x12,watch_accel_y12,watch_accel_z12,watch_gyros_x12,watch_gyros_y12,watch_gyros_z12,watch_accel_x13,watch_accel_y13,watch_accel_z13,watch_gyros_x13,watch_gyros_y13,watch_gyros_z13,watch_accel_x14,watch_accel_y14,watch_accel_z14,watch_gyros_x14,watch_gyros_y14,watch_gyros_z14,watch_accel_x15,watch_accel_y15,watch_accel_z15,watch_gyros_x15,watch_gyros_y15,watch_gyros_z15,watch_accel_x16,watch_accel_y16,watch_accel_z16,watch_gyros_x16,watch_gyros_y16,watch_gyros_z16,watch_accel_x17,watch_accel_y17,watch_accel_z17,watch_gyros_x17,watch_gyros_y17,watch_gyros_z17,watch_accel_x18,watch_accel_y18,watch_accel_z18,watch_gyros_x18,watch_gyros_y18,watch_gyros_z18,watch_accel_x19,watch_accel_y19,watch_accel_z19,watch_gyros_x19,watch_gyros_y19,watch_gyros_z19,watch_accel_x20,watch_accel_y20,watch_accel_z20,watch_gyros_x20,watch_gyros_y20,watch_gyros_z20,watch_accel_x21,watch_accel_y21,watch_accel_z21,watch_gyros_x21,watch_gyros_y21,watch_gyros_z21,watch_accel_x22,watch_accel_y22,watch_accel_z22,watch_gyros_x22,watch_gyros_y22,watch_gyros_z22,watch_accel_x23,watch_accel_y23,watch_accel_z23,watch_gyros_x23,watch_gyros_y23,watch_gyros_z23,watch_accel_x24,watch_accel_y24,watch_accel_z24,watch_gyros_x24,watch_gyros_y24,watch_gyros_z24,watch_accel_x25,watch_accel_y25,watch_accel_z25,watch_gyros_x25,watch_gyros_y25,watch_gyros_z25,watch_accel_x26,watch_accel_y26,watch_accel_z26,watch_gyros_x26,watch_gyros_y26,watch_gyros_z26,watch_accel_x27,watch_accel_y27,watch_accel_z27,watch_gyros_x27,watch_gyros_y27,watch_gyros_z27,watch_accel_x28,watch_accel_y28,watch_accel_z28,watch_gyros_x28,watch_gyros_y28,watch_gyros_z28,watch_accel_x29,watch_accel_y29,watch_accel_z29,watch_gyros_x29,watch_gyros_y29,watch_gyros_z29,watch_accel_x30,watch_accel_y30,watch_accel_z30,watch_gyros_x30,watch_gyros_y30,watch_gyros_z30,watch_accel_x31,watch_accel_y31,watch_accel_z31,watch_gyros_x31,watch_gyros_y31,watch_gyros_z31,watch_accel_x32,watch_accel_y32,watch_accel_z32,watch_gyros_x32,watch_gyros_y32,watch_gyros_z32,watch_accel_x33,watch_accel_y33,watch_accel_z33,watch_gyros_x33,watch_gyros_y33,watch_gyros_z33,watch_accel_x34,watch_accel_y34,watch_accel_z34,watch_gyros_x34,watch_gyros_y34,watch_gyros_z34,watch_accel_x35,watch_accel_y35,watch_accel_z35,watch_gyros_x35,watch_gyros_y35,watch_gyros_z35,watch_accel_x36,watch_accel_y36,watch_accel_z36,watch_gyros_x36,watch_gyros_y36,watch_gyros_z36,watch_accel_x37,watch_accel_y37,watch_accel_z37,watch_gyros_x37,watch_gyros_y37,watch_gyros_z37,watch_accel_x38,watch_accel_y38,watch_accel_z38,watch_gyros_x38,watch_gyros_y38,watch_gyros_z38,watch_accel_x39,watch_accel_y39,watch_accel_z39,watch_gyros_x39,watch_gyros_y39,watch_gyros_z39,watch_accel_x40,watch_accel_y40,watch_accel_z40,watch_gyros_x40,watch_gyros_y40,watch_gyros_z40,watch_accel_x41,watch_accel_y41,watch_accel_z41,watch_gyros_x41,watch_gyros_y41,watch_gyros_z41,watch_accel_x42,watch_accel_y42,watch_accel_z42,watch_gyros_x42,watch_gyros_y42,watch_gyros_z42,watch_accel_x43,watch_accel_y43,watch_accel_z43,watch_gyros_x43,watch_gyros_y43,watch_gyros_z43,watch_accel_x44,watch_accel_y44,watch_accel_z44,watch_gyros_x44,watch_gyros_y44,watch_gyros_z44,watch_accel_x45,watch_accel_y45,watch_accel_z45,watch_gyros_x45,watch_gyros_y45,watch_gyros_z45,watch_accel_x46,watch_accel_y46,watch_accel_z46,watch_gyros_x46,watch_gyros_y46,watch_gyros_z46,watch_accel_x47,watch_accel_y47,watch_accel_z47,watch_gyros_x47,watch_gyros_y47,watch_gyros_z47,watch_accel_x48,watch_accel_y48,watch_accel_z48,watch_gyros_x48,watch_gyros_y48,watch_gyros_z48,watch_accel_x49,watch_accel_y49,watch_accel_z49,watch_gyros_x49,watch_gyros_y49,watch_gyros_z49,watch_accel_x50,watch_accel_y50,watch_accel_z50,watch_gyros_x50,watch_gyros_y50,watch_gyros_z50,watch_accel_x51,watch_accel_y51,watch_accel_z51,watch_gyros_x51,watch_gyros_y51,watch_gyros_z51,watch_accel_x52,watch_accel_y52,watch_accel_z52,watch_gyros_x52,watch_gyros_y52,watch_gyros_z52
shake,10202,209,209_10202_260414162331707,-2.6001031398773193,-4.7189717292785645,-8.317456245422363,0.3323107063770294,0.06963863968849182,-0.03176499158143997,-2.535459518432617,-5.233725070953369,-9.050082206726074,0.6255260109901428,0.006108652334660292,-0.05742133408784866,-2.4636335372924805,-6.916848659515381,-8.125920295715332,1.236391305923462,-0.04153883829712868,0.04886921867728233,-2.3487119674682617,-4.1180267333984375,-7.869740962982178,0.9004153609275818,0.1563815027475357,-0.030543262138962746,-2.691082715988159,-4.3622355461120605,-7.441178798675537,0.4105014503002167,0.10262536257505417,-0.12095131725072861,-2.760514497756958,-5.947196960449219,-8.38449478149414,0.09896016865968704,-0.08674286305904388,-0.14416420459747314,-2.408566951751709,-5.303156852722168,-8.4108304977417,-0.039095375686883926,-0.294437050819397,-0.1417207419872284,-2.403778553009033,-7.307103633880615,-8.93037223815918,0.22602014243602753,-0.27611109614372253,0.021991148591041565,-2.5785553455352783,-6.150704383850098,-8.123526573181152,0.3494149148464203,-0.1258382350206375,0.06963863968849182,-2.7030537128448486,-5.396530628204346,-7.601590633392334,0.6963863968849182,0.14416420459747314,0.11850785464048386,-2.741360902786255,-6.528987884521484,-6.845022678375244,0.7293730974197388,0.1368338167667389,0.17592918872833252,-2.499546527862549,-6.2416839599609375,-7.01979923248291,0.19058994948863983,-0.012217304669320583,0.3066543638706207,-2.1116859912872314,-6.009446144104004,-7.965508937835693,-0.11728613078594208,0.018325956538319588,0.38606682419776917,-1.9704279899597168,-6.775590896606445,-8.257601737976074,0.1111774742603302,0.14416420459747314,0.4703662395477295,-2.360682964324951,-5.849034786224365,-8.188169479370117,0.8454375267028809,0.24678955972194672,0.5717698931694031,-2.5067291259765625,-5.3127336502075195,-7.479485988616943,1.0958921909332275,0.21013765037059784,0.49235737323760986,-2.5067291259765625,-5.485116004943848,-7.364564418792725,0.7745771408081055,0.05497787147760391,0.4202753007411957,-2.3535003662109375,-5.937620162963867,-6.9910688400268555,0.3995058834552765,0.04153883829712868,0.3396410644054413,-3.050212860107422,-5.073313236236572,-7.884106159210205,0.030543262138962746,0.14294247329235077,0.2822197377681732,-3.1531636714935303,-5.932831764221191,-7.287950038909912,0.059864792972803116,-0.00733038317412138,0.15027284622192383,-3.1004912853240967,-5.568912982940674,-7.175422668457031,0.24556782841682434,-0.04642575979232788,0.12339477986097336,-3.043030261993408,-5.410895824432373,-6.914454460144043,0.10506882518529892,0.03176499158143997,0.09040805697441101,-3.2992098331451416,-5.729324817657471,-7.419631004333496,-0.09651670604944229,0.12828169763088226,0.1270599663257599,-3.098097085952759,-6.722918510437012,-7.694964408874512,-0.1368338167667389,0.059864792972803116,0.10384709388017654,-2.8802247047424316,-7.074865818023682,-7.536946773529053,0.2675589919090271,-0.06719517707824707,0.07696902006864548,-2.9448680877685547,-6.215347766876221,-7.467514991760254,0.5766568183898926,-0.04642575979232788,0.10018189996480942,-3.272873640060425,-5.413290023803711,-7.038952827453613,0.4764748811721802,0.05253441259264946,0.10262536257505417,-3.294421434402466,-6.912060260772705,-6.825869083404541,0.3481931984424591,0.05497787147760391,0.08796459436416626,-2.9281086921691895,-6.921637058258057,-6.670246124267578,0.3799581825733185,0.010995574295520782,0.1417207419872284,-2.999934673309326,-6.01423454284668,-6.732495307922363,0.22357667982578278,0.030543262138962746,0.13927727937698364,-3.2800562381744385,-5.628767967224121,-7.115567684173584,-0.10751228034496307,0.07330382615327835,0.15882496535778046,-2.8203697204589844,-6.737283706665039,-7.668628215789795,-0.20891591906547546,0.02076941914856434,0.12095131725072861,-2.3965959548950195,-7.16584587097168,-7.321468830108643,0.3127630054950714,0.06352998316287994,0.1319468915462494,-2.832340717315674,-7.448361396789551,-7.309497833251953,0.7684684991836548,0.07330382615327835,0.15882496535778046,-3.1076738834381104,-5.971138954162598,-6.291962146759033,0.6352998614311218,0.12461651116609573,0.21380282938480377,-3.2968156337738037,-5.564124584197998,-5.832275390625,0.15393804013729095,0.09162978827953339,0.11972958594560623,-3.0310592651367188,-6.600813865661621,-6.265625953674316,-0.251676470041275,0.006108652334660292,0.07819075137376785,-2.80361008644104,-6.078877925872803,-6.337451934814453,-0.1270599663257599,0.06841690838336945,0.07819075137376785,-2.9233202934265137,-5.743690013885498,-6.5481414794921875,-0.2272418737411499,0.1661553531885147,0.06719517707824707,-2.7964274883270264,-6.203376770019531,-6.840234279632568,-0.5522221922874451,0.1661553531885147,0.05497787147760391,-2.760514497756958,-6.461950302124023,-7.146692276000977,-0.5864306092262268,0.16982053220272064,0.09773843735456467,-2.786850690841675,-6.4595561027526855,-7.287950038909912,-0.4434881806373596,0.18325957655906677,0.0757472887635231,-2.896984100341797,-6.430825710296631,-7.568071365356445,-0.05375614017248154,0.1966986060142517,0.09651670604944229,-3.004723072052002,-6.203376770019531,-7.47230339050293,0.05253441259264946,0.20036379992961884,0.15271630883216858,-3.0190882682800293,-6.189011573791504,-7.223306655883789,0.0659734457731247,0.2064724564552307,0.23090706765651703,-3.1028854846954346,-5.822698593139648,-6.9455790519714355,-0.0757472887635231,0.19547687470912933,0.251676470041275,-3.134010076522827,-5.832275390625,-7.146692276000977,-0.21013765037059784,0.19058994948863983,0.2773328125476837,-3.028665065765381,-6.143521785736084,-7.132327079772949,-0.2321287989616394,0.13927727937698364,0.26022860407829285,-3.1076738834381104,-5.959167957305908,-7.266402244567871,-0.1417207419872284,0.1466076523065567,0.2822197377681732,-3.1220390796661377,-5.7341132164001465,-7.2352776527404785,0.010995574295520782,0.15027284622192383,0.2528982162475586,-2.9544448852539062,-5.918466567993164,-7.242460250854492,0.036651913076639175,0.09773843735456467,0.2675589919090271,-2.8203697204589844,-6.447585105895996,-7.412448406219482,0.0659734457731247,0.00733038317412138,0.2724458873271942,-2.7533318996429443,-6.672640323638916,-7.5632829666137695,0.2590068578720093,-0.01710422709584236,0.3738495409488678
