label,sub_label,user,file_id,watch_accel_x0,watch_accel_y0,watch_accel_z0,watch_gyros_x0,watch_gyros_y0,watch_gyros_z0,watch_accel_x1,watch_accel_y1,watch_accel_z1,watch_gyros_x1,watch_gyros_y1,watch_gyros_z1,watch_accel_x2,watch_accel_y2,watch_accel_z2,watch_gyros_x2,watch_gyros_y2,watch_gyros_z2,watch_accel_x3,watch_accel_y3,watch_accel_z3,watch_gyros_x3,watch_gyros_y3,watch_gyros_z3,watch_accel_x4,watch_accel_y4,watch_accel_z4,watch_gyros_x4,watch_gyros_y4,watch_gyros_z4,watch_accel_x5,watch_accel_y5,watch_accel_z5,watch_gyros_x5,watch_gyros_y5,watch_gyros_z5,watch_accel_x6,watch_accel_y6,watch_accel_z6,watch_gyros_x6,watch_gyros_y6,watch_gyros_z6,watch_accel_x7,watch_accel_y7,watch_accel_z7,watch_gyros_x7,watch_gyros_y7,watch_gyros_z7,watch_accel_x8,watch_accel_y8,watch_accel_z8,watch_gyros_x8,watch_gyros_y8,watch_gyros_z8,watch_accel_x9,watch_accel_y9,watch_accel_z9,watch_gyros_x9,watch_gyros_y9,watch_gyros_z9,watch_accel_x10,watch_accel_y10,watch_accel_z10,watch_gyros_x10,watch_gyros_y10,watch_gyros_z10,watch_accel_x11,watch_accel_y11,watch_accel_z11,watch_gyros_x11,watch_gyros_y11,watch_gyros_z11,watch_accel_x12,watch_accel_y12,watch_accel_z12,watch_gyros_x12,watch_gyros_y12,watch_gyros_z12,watch_accel_x13,watch_accel_y13,watch_accel_z13,watch_gyros_x13,watch_gyros_y13,watch_gyros_z13,watch_accel_x14,watch_accel_y14,watch_accel_z14,watch_gyros_x14,watch_gyros_y14,watch_gyros_z14,watch_accel_x15,watch_accel_y15,watch_accel_z15,watch_gyros_x15,watch_gyros_y15,watch_gyros_z15,watch_accel_x16,watch_accel_y16,watch_accel_z16,watch_gyros_x16,watch_gyros_y16,watch_gyros_z16,watch_accel_x17,watch_accel_y17,watch_accel_z17,watch_gyros_x17,watch_gyros_y17,watch_gyros_z17,watch_accel_x18,watch_accel_y18,watch_accel_z18,watch_gyros_x18,watch_gyros_y18,watch_gyros_z18,watch_accel_x19,watch_accel_y19,watch_accel_z19,watch_gyros_x19,watch_gyros_y19,watch_gyros_z19,watch_accel_x20,watch_accel_y20,watch_accel_z20,watch_gyros_x20,watch_gyros_y20,watch_gyros_z20,watch_accel_x21,watch_accel_y21,watch_accel_z21,watch_gyros_x21,watch_gyros_y21,watch_gyros_z21,watch_accel_x22,watch_accel_y22,watch_accel_z22,watch_gyros_x22,watch_gyros_y22,watch_gyros_z22,watch_accel_x23,watch_accel_y23,watch_accel_z23,watch_gyros_x23,watch_gyros_y23,watch_gyros_z23,watch_accel_x24,watch_accel_y24,watch_accel_z24,watch_gyros_x24,watch_gyros_y24,watch_gyros_z24,watch_accel_x25,watch_accel_y25,watch_accel_z25,watch_gyros_x25,watch_gyros_y25,watch_gyros_z25,watch_accel_x26,watch_accel_y26,watch_accel_z26,watch_gyros_x26,watch_gyros_y26,watch_gyros_z26,watch_accel_x27,watch_accel_y27,watch_accel_z27,watch_gyros_x27,watch_gyros_y27,watch_gyros_z27,watch_accel_x28,watch_accel_y28,watch_accel_z28,watch_gyros_x28,watch_gyros_y28,watch_gyros_z28,watch_accel_x29,watch_accel_y29,watch_accel_z29,watch_gyros_x29,watch_gyros_y29,watch_gyros_z29,watch_accel_x30,watch_accel_y30,watch_accel_z30,watch_gyros_x30,watch_gyros_y30,watch_gyros_z30,watch_accel_x31,watch_accel_y31,watch_accel_z31,watch_gyros_x31,watch_gyros_y31,watch_gyros_z31,watch_accel_x32,watch_accel_y32,watch_accel_z32,watch_gyros_x32,watch_gyros_y32,watch_gyros_z32,watch_accel_x33,watch_accel_y33,watch_accel_z33,watch_gyros_x33,watch_gyros_y33,watch_gyros_z33,watch_accel_x34,watch_accel_y34,watch_accel_z34,watch_gyros_x34,watch_gyros_y34,watch_gyros_z34,watch_accel_x35,watch_accel_y35,watch_accel_z35,watch_gyros_x35,watch_gyros_y35,watch_gyros_z35,watch_accel_x36,watch_accel_y36,watch_accel_z36,watch_gyros_x36,watch_gyros_y36,watch_gyros_z36,watch_accel_x37,watch_accel_y37,watch_accel_z37,watch_gyros_x37,watch_gyros_y37,watch_gyros_z37,watch_accel_x38,watch_accel_y38,watch_accel_z38,watch_gyros_x38,watch_gyros_y38,watch_gyros_z38,watch_accel_x39,watch_accel_y39,watch_accel_z39,watch_gyros_x39,watch_gyros_y39,watch_gyros_z39,watch_accel_x40,watch_accel_y40,watch_accel_z40,watch_gyros_x40,watch_gyros_y40,watch_gyros_z40,watch_accel_x41,watch_accel_y41,watch_accel_z41,watch_gyros_x41,watch_gyros_y41,watch_gyros_z41,watch_accel_x42,watch_accel_y42,watch_accel_z42,watch_gyros_x42,watch_gyros_y42,watch_gyros_z42,watch_accel_x43,watch_accel_y43,watch_accel_z43,watch_gyros_x43,watch_gyros_y43,watch_gyros_z43,watch_accel_x44,watch_accel_y44,watch_accel_z44,watch_gyros_x44,watch_gyros_y44,watch_gyros_z44,watch_accel_x45,watch_accel_y45,watch_accel_z45,watch_gyros_x45,watch_gyros_y45,watch_gyros_z45,watch_accel_x46,watch_accel_y46,watch_accel_z46,watch_gyros_x46,watch_gyros_y46,watch_gyros_z46,watch_accel_x47,watch_accel_y47,watch_accel_z47,watch_gyros_x47,watch_gyros_y47,watch_gyros_z47,watch_accel_x48,watch_accel_y48,watch_accel_z48,watch_gyros_x48,watch_gyros_y48,watch_gyros_z48,watch_accel_x49,watch_accel_y49,watch_accel_z49,watch_gyros_x49,watch_gyros_y49,watch_gyros_z49,watch_accel_x50,watch_accel_y50,watch_accel_z50,watch_gyros_x50,watch_gyros_y50,watch_gyros_z50,watch_accel_x51,watch_accel_y51,watch_accel_z51,watch_gyros_x51,watch_gyros_y51,watch_gyros_z51,watch_accel_x52,watch_accel_y52,watch_accel_z52,watch_gyros_x52,watch_gyros_y52,watch_gyros_z52,watch_accel_x53,watch_accel_y53,watch_accel_z53,watch_gyros_x53,watch_gyros_y53,watch_gyros_z53
shake,10202,114,114_10202_260411000643411,3.1220390796661377,-6.469132900238037,-5.037400245666504,1.1423180103302002,0.4398229718208313,0.09529497474431992,2.6024973392486572,-6.224924564361572,-4.632780075073242,0.8051204085350037,0.7550294399261475,0.4202753007411957,1.6974890232086182,-6.1315507888793945,-2.583343744277954,0.31520646810531616,1.0604621171951294,0.6548475623130798,0.9409212470054626,-7.673416614532471,0.07900865375995636,-0.14538592100143433,1.2559388875961304,1.0885618925094604,1.53707754611969,-9.904812812805176,1.1755530834197998,-0.7648032903671265,0.6670648455619812,1.3048081398010254,2.762908697128296,-11.396400451660156,2.049436569213867,-1.7690657377243042,0.44226643443107605,1.3878858089447021,3.804386615753174,-13.414711952209473,-0.5722141861915588,-3.0250046253204346,0.09407325088977814,1.027475357055664,4.955997467041016,-5.612008571624756,-8.609549522399902,-3.1691689491271973,-0.5803219676017761,0.2076941877603531,3.160346269607544,0.33279404044151306,-12.445060729980469,-1.8350391387939453,0.23335053026676178,0.5705481171607971,-1.6376339197158813,-4.122815132141113,-10.47702693939209,-0.7489207983016968,1.7715091705322266,0.8735373020172119,-2.0254945755004883,-15.650896072387695,-6.605602264404297,-0.750142514705658,0.6157521605491638,0.7684684991836548,5.6670756340026855,-18.9022216796875,-5.114014625549316,2.072054862976074,-0.3396410644054413,0.27122417092323303,6.63433313369751,-12.215216636657715,-4.393360137939453,4.604701995849609,0.5900958180427551,-0.9285151958465576,2.027888774871826,-4.987122058868408,-0.40462008118629456,4.781853199005127,1.0848966836929321,-1.0299187898635864,-0.7134721279144287,-4.58968448638916,2.806004285812378,2.737898111343384,0.608421802520752,-0.5558874011039734,-0.05506663769483566,-7.8745293617248535,1.039083480834961,1.0348057746887207,-0.5424483418464661,-0.3689626157283783,1.8986018896102905,-10.936713218688965,-3.2082302570343018,1.4184291362762451,-0.6243042945861816,-0.48747047781944275,0.7829039692878723,-9.674968719482422,-2.3487119674682617,2.2125539779663086,0.3640756905078888,-0.3396410644054413,-0.1604115068912506,-8.008605003356934,-0.33039984107017517,1.2803735733032227,0.6841690540313721,0.02321287989616394,1.1468225717544556,-8.087613105773926,1.6376339197158813,-0.4153883755207062,0.2272418737411499,0.42760565876960754,3.624821424484253,-9.39245319366455,3.0813376903533936,-2.2711970806121826,-0.251676470041275,0.7244861721992493,4.817133903503418,-9.734824180603027,3.023876667022705,-4.012163162231445,-0.5424483418464661,0.5815436840057373,6.813898086547852,-5.238513469696045,-5.03021764755249,-4.416555881500244,-1.0128145217895508,0.22968533635139465,4.252102375030518,-4.101267337799072,-10.098742485046387,-3.871663808822632,-0.00366519158706069,0.4703662395477295,-0.28969839215278625,-7.850587368011475,-9.370905876159668,-1.4831807613372803,0.979827880859375,0.5510004758834839,-1.094150185585022,-10.6709566116333,-5.96874475479126,0.9443976879119873,0.9040805697441101,0.5338962078094482,1.2114660739898682,-13.443442344665527,-2.6815059185028076,1.6945401430130005,0.004886921960860491,0.4178318381309509,3.952826976776123,-12.442666053771973,-2.5713725090026855,1.1056660413742065,-0.14416420459747314,-0.13316862285137177,3.0310592651367188,-10.551246643066406,-2.516305923461914,0.9847147464752197,0.23457226157188416,-0.5363397002220154,1.0678139925003052,-9.222464561462402,-0.21787235140800476,1.0348057746887207,0.3579670190811157,-0.6120869517326355,0.524330198764801,-9.847352027893066,1.335964560508728,0.7293730974197388,-0.19547687470912933,-0.5962044596672058,0.950498104095459,-9.995792388916016,0.002394201699644327,0.44715335965156555,-0.7086036801338196,-0.7330383062362671,1.139639973640442,-9.497797966003418,-1.290474772453308,0.35185837745666504,-0.7562511563301086,-0.720820963382721,1.290474772453308,-8.51138687133789,-2.343923568725586,0.2724458873271942,-0.8381071090698242,-0.7244861721992493,2.049436569213867,-7.987056732177734,-2.889801502227783,0.07452555745840073,-0.9456194043159485,-0.6010913848876953,3.069366693496704,-7.931990146636963,-3.778050184249878,-0.08552113175392151,-0.9162978529930115,-0.5119050741195679,3.4811692237854004,-7.682993412017822,-4.180276393890381,-0.22968533635139465,-0.7391469478607178,-0.4141666293144226,3.224989652633667,-7.5848307609558105,-4.352658748626709,-0.32986724376678467,-0.5766568183898926,-0.34086281061172485,2.9496564865112305,-7.778761386871338,-4.244919776916504,-0.4337143301963806,-0.48258355259895325,-0.2675589919090271,2.8562827110290527,-8.2312650680542,-4.106055736541748,-0.44837507605552673,-0.37751471996307373,-0.18936823308467865,2.832340717315674,-8.429984092712402,-3.909731388092041,-0.22846360504627228,-0.2687807083129883,-0.13805554807186127,2.7461493015289307,-8.248024940490723,-3.5745432376861572,0.0024434609804302454,-0.24923302233219147,-0.11484266817569733,2.6671407222747803,-7.979874134063721,-3.751713991165161,0.04886921867728233,-0.22602014243602753,-0.0659734457731247,2.6455929279327393,-8.145073890686035,-3.9911341667175293,-0.13805554807186127,-0.1563815027475357,-0.0024434609804302454,2.4803929328918457,-8.769960403442383,-4.175487995147705,-0.18448130786418915,-0.11728613078594208,0.00733038317412138,2.585737943649292,-8.674192428588867,-4.199429988861084,-0.1563815027475357,-0.09407325088977814,-0.0012217304902151227,2.609679937362671,-8.65743350982666,-4.036623954772949,-0.010995574295520782,-0.042760565876960754,0.0,2.6240451335906982,-8.554482460021973,-3.7014358043670654,-0.028099801391363144,0.009773843921720982,0.0012217304902151227,2.5474305152893066,-8.576030731201172,-3.5051112174987793,-0.08552113175392151,0.0024434609804302454,0.009773843921720982,2.6455929279327393,-8.846575736999512,-3.6774938106536865,-0.0757472887635231,-0.018325956538319588,-0.004886921960860491,2.7293899059295654,-8.87291145324707,-3.533841609954834,-0.06841690838336945,0.02321287989616394,-0.00855211354792118,2.6144683361053467,-8.932766914367676,-3.4356794357299805,0.019547687843441963,0.018325956538319588,-0.0403171069920063,2.7054479122161865,-8.676587104797363,-3.40216064453125,0.030543262138962746,-0.009773843921720982,-0.05497787147760391,2.7724854946136475,-8.458714485168457,-3.4308910369873047,-0.021991148591041565,-0.02321287989616394,-0.05375614017248154
